File: ASM109_2021_data/MTS/Quasi/MTS_quasi_3.csv
,Time [s],Load [N],Displacement [mm]
0,0.00683594,-354.639,0.000622348
16,0.0849609,-298.12,-0.00115731
32,0.163086,-233.475,0.00392632
48,0.241211,-196.772,0.00719258
64,0.319336,-173.21,0.00757944
80,0.397461,-134.307,0.0114205
96,0.475586,-119.016,0.0131662
112,0.553711,-95.4328,0.0165729
128,0.631836,-43.9519,0.0187851
144,0.709961,-16.5839,0.0215698
160,0.788086,11.5858,0.0242979
176,0.866211,30.0307,0.0269066
192,0.944336,90.3874,0.0303145
208,1.02246,111.283,0.0315879
224,1.10059,144.496,0.036157
240,1.17871,164.493,0.0352557
256,1.25684,220.075,0.039317
272,1.33496,256.034,0.04375124
288,1.41309,283.59,0.0458871
304,1.49121,313.315,0.0470864
320,1.56934,320.738,0.0504247
336,1.64746,380.863,0.0536924
352,1.72559,400.767,0.0540262
368,1.80371,454.344,0.0591337
384,1.88184,469.929,0.0602199
400,1.95996,501.488,0.0641319
416,2.03809,541.792,0.0653185
432,2.11621,557.757,0.06904
448,2.19434,604.102,0.07132417
464,2.27246,638.044,0.0736662
480,2.35059,671.587,0.0760163
496,2.42871,693.965,0.0786332
512,2.50684,743.125,0.0832439
528,2.58496,723.091,0.083508
544,2.66309,779.953,0.0860595
560,2.74121,813.363,0.08864712
576,2.81934,871.414,0.0923201
592,2.89746,898.346,0.094323
608,2.97559,896.81,0.0972511
624,3.05371,953.958,0.100729
640,3.13184,984.148,0.102771
656,3.20996,1029.85,0.106051
672,3.28809,1028.04,0.10638
688,3.36621,1095.86,0.110101
704,3.44434,1113.13,0.111954
720,3.52246,1162.63,0.114841
736,3.60059,1139.66,0.117114
752,3.67871,1225.85,0.119831
768,3.75684,1245.21,0.122765
784,3.83496,1272.32,0.124686
800,3.91309,1320.53,0.127224
816,3.99121,1320.26,0.129266
832,4.06934,1371.77,0.132982
848,4.14746,1399.71,0.1348353
864,4.22559,1439.5,0.139505
880,4.30371,1465.52,0.140215
896,4.38184,1503.62,0.143969
912,4.45996,1538.22,0.145308
928,4.53809,1565.14,0.148055
944,4.61621,1603.08,0.151733
960,4.69434,1623.28,0.15305
976,4.77246,1670.65,0.156904
992,4.85059,1672.02,0.157922
1008,4.92871,1739.63,0.1618209
1024,5.00684,1730.97,0.1627349
1040,5.08496,1793.41,0.166288
1056,5.16309,1801.6,0.169293
1072,5.24121,1851.29,0.172227
1088,5.31934,1898.48,0.176463
1104,5.39746,1905.49,0.177997
1120,5.47559,1951.64,0.179679
1136,5.55371,1978.51,0.181786
1152,5.63184,2032.99,0.185645
1168,5.70996,2031.83,0.187011
1184,5.78809,2087.2,0.189146
1200,5.86621,2117.86,0.193172
1216,5.94434,2162.09,0.1955
1232,6.02246,2181.98,0.198077
1248,6.10059,2221.07,0.201186
1264,6.17871,2228.97,0.2035805
1280,6.25684,2271.49,0.205353
1296,6.33496,2316.48,0.208318
1312,6.41309,2336.74,0.210264
1328,6.49121,2385.16,0.214615
1344,6.56934,2389.55,0.216008
1360,6.64746,2432.36,0.21857
1376,6.72559,2482.51,0.22176
1392,6.80371,2502.27,0.224368
1408,6.88184,2523.95,0.226842
1424,6.95996,2553.75,0.229552
1440,7.03809,2603.16,0.231508
1456,7.11621,2572.83,0.23483
1472,7.19434,2668.98,0.2382562
1488,7.27246,2674.28,0.238419
1504,7.35059,2724.75,0.242615
1520,7.42871,2765.4,0.246159
1536,7.50684,2792.54,0.247778
1552,7.58496,2814.8,0.250053
1568,7.66309,2839.34,0.252447
1584,7.74121,2884.64,0.255638
1600,7.81934,2921.16,0.258463
1616,7.89746,2955.24,0.261019
1632,7.97559,2911.26,0.261679
1648,8.05371,3015.14,0.2668038
1664,8.13184,3042.91,0.266456
1680,8.20996,3083.09,0.270414
1696,8.28809,3113.37,0.2724
1712,8.36621,3129.7,0.275616
1728,8.44434,3178.09,0.278581
1744,8.52246,3205.28,0.28137
1760,8.60059,3235.04,0.283877
1776,8.67871,3222.75,0.285295
1792,8.75684,3306.53,0.291093
1808,8.83496,3311.73,0.290717
1824,8.91309,3362.32,0.295239
1840,8.99121,3393.83,0.295801
1856,9.06934,3389.79,0.299891
1872,9.14746,3445.78,0.302928
1888,9.22559,3490.69,0.30522
1904,9.30371,3528.49,0.307112
1920,9.38184,3516.17,0.309373
1936,9.45996,3576.58,0.312778
1952,9.53809,3586.95,0.314153
1968,9.61621,3641.99,0.318294
1984,9.69434,3671.82,0.320082
2000,9.77246,3691.6,0.322113
2016,9.85059,3737.07,0.326276
2032,9.92871,3762.17,0.328266
2048,10.0068,3802.88,0.331489
2064,10.085,3820.95,0.332233
2080,10.1631,3869.17,0.337021
2096,10.2412,3886.08,0.338459
2112,10.3193,3944.98,0.342618
2128,10.3975,3910.98,0.343711
2144,10.4756,3950.26,0.345298
2160,10.5537,4006.51,0.347637
2176,10.6318,4053.57,0.35173
2192,10.71,4094.43,0.35596
2208,10.7881,4088.45,0.357581
2224,10.8662,4138.17,0.359386
2240,10.9443,4170.71,0.361761
2256,11.0225,4221.71,0.365702
2272,11.1006,4247.03,0.366382
2288,11.1787,4276.39,0.3695986
2304,11.2568,4306.42,0.373328
2320,11.335,4333.63,0.374042
2336,11.4131,4364.78,0.378055
2352,11.4912,4391.42,0.380049
2368,11.5693,4427.07,0.382503
2384,11.6475,4434.44,0.385516
2400,11.7256,4499.27,0.388988
2416,11.8037,4530.43,0.391119
2432,11.8818,4552.49,0.392359
2448,11.96,4562,0.3942765
2464,12.0381,4609.34,0.398355
2480,12.1162,4662.73,0.4006995
2496,12.1943,4667.85,0.402491
2512,12.2725,4705.92,0.405401
2528,12.3506,4722.67,0.408497
2544,12.4287,4781.5,0.413868
2560,12.5068,4800.37,0.413441
2576,12.585,4837.56,0.417991
2592,12.6631,4847.59,0.419931
2608,12.7412,4906.77,0.422238
2624,12.8193,4947.39,0.426287
2640,12.8975,4959.68,0.425819
2656,12.9756,4994.69,0.429206
2672,13.0537,5008.45,0.432764
2688,13.1318,5065.96,0.435123
2704,13.21,5079.18,0.436246
2720,13.2881,5129.14,0.440941
2736,13.3662,5141.09,0.442202
2752,13.4443,5189.73,0.446983
2768,13.5225,5224.65,0.448434
2784,13.6006,5245.94,0.450366
2800,13.6787,5277.34,0.452861
2816,13.7568,5285.44,0.454599
2832,13.835,5342.27,0.458863
2848,13.9131,5363.96,0.459672
2864,13.9912,5408.18,0.463846
2880,14.0693,5377.61,0.465171
2896,14.1475,5473.66,0.46902
2912,14.2256,5494.79,0.470755
2928,14.3037,5516.2,0.474375
2944,14.3818,5558.08,0.476969
2960,14.46,5558.05,0.479202
2976,14.5381,5620.87,0.481794
2992,14.6162,5637.24,0.484654
3008,14.6943,5686.87,0.48764
3024,14.7725,5691.87,0.488308
3040,14.8506,5742.6,0.492934
3056,14.9287,5765.68,0.493938
3072,15.0068,5803.85,0.497908
3088,15.085,5834.95,0.4993
3104,15.1631,5844.18,0.502152
3120,15.2412,5903.89,0.50553
3136,15.3193,5931.94,0.506871
3152,15.3975,5958.86,0.51004
3168,15.4756,5954.8,0.512366
3184,15.5537,6021.57,0.515194
3200,15.6318,6054.86,0.5186733
3216,15.71,6086,0.521507
3232,15.7881,6107.5,0.524423
3248,15.8662,6132.27,0.527395
3264,15.9443,6171.56,0.529399
3280,16.0225,6209.76,0.532274
3296,16.1006,6243.28,0.534479
3312,16.1787,6250.24,0.534905
3328,16.2568,6301.78,0.540241
3344,16.335,6320.72,0.542359
3360,16.4131,6374.54,0.545524
3376,16.4912,6387.16,0.545198
3392,16.5693,6408.16,0.550684
3408,16.6475,6443.23,0.553512
3424,16.7256,6464.41,0.553747
3440,16.8037,6513.74,0.558275
3456,16.8818,6528.34,0.557907
3472,16.96,6570.39,0.563146
3488,17.0381,6591.05,0.563801
3504,17.1162,6644.08,0.568152
3520,17.1943,6643.35,0.569016
3536,17.2725,6687.2,0.572609
3552,17.3506,6728.47,0.577233
3568,17.4287,6761.43,0.578504
3584,17.5068,6785.96,0.580178
3600,17.585,6803.78,0.582736
3616,17.6631,6847.01,0.586118
3632,17.7412,6870.9,0.588087
3648,17.8193,6901.87,0.591406
3664,17.8975,6929.85,0.592415
3680,17.9756,6980.12,0.595975
3696,18.0537,7003.63,0.598181
3712,18.1318,7025.37,0.60238
3728,18.21,7059.2,0.603715
3744,18.2881,7080.72,0.606551
3760,18.3662,7118.01,0.609757
3776,18.4443,7147.57,0.610862
3792,18.5225,7194.82,0.614425
3808,18.6006,7192.19,0.6163463
3824,18.6787,7249.91,0.619622
3840,18.7568,7287.01,0.623372
3856,18.835,7319.34,0.625013
3872,18.9131,7343.22,0.627415
3888,18.9912,7329.67,0.628736
3904,19.0693,7392.84,0.632706
3920,19.1475,7419.39,0.634563
3936,19.2256,7480.51,0.639692
3952,19.3037,7479.15,0.639086
3968,19.3818,7538.42,0.6438877
3984,19.46,7551.87,0.645744
4000,19.5381,7602.15,0.650879
4016,19.6162,7629.54,0.6529085
4032,19.6943,7655.3,0.651923
4048,19.7725,7669.13,0.656163
4064,19.8506,7703.36,0.657418
4080,19.9287,7751.9,0.663184
4096,20.0068,7760.4,0.66298
4112,20.085,7802.3,0.665288
4128,20.1631,7817.57,0.668536
4144,20.2412,7860.92,0.673129
4160,20.3193,7898.58,0.674407
4176,20.3975,7926.82,0.676008
4192,20.4756,7958.57,0.680299
4208,20.5537,7955.77,0.6828295
4224,20.6318,8019.88,0.6854561
4240,20.71,8041.76,0.688126
4256,20.7881,8081.93,0.689876
4272,20.8662,8083.42,0.691502
4288,20.9443,8142.65,0.695753
4304,21.0225,8176.76,0.698357
4320,21.1006,8198.43,0.700664
4336,21.1787,8223.96,0.703601
4352,21.2568,8255.42,0.7054497
4368,21.335,8292.99,0.708623
4384,21.4131,8312.56,0.709473
4400,21.4912,8351.44,0.714027
4416,21.5693,8350.6,0.715586
4432,21.6475,8410.5,0.719426
4448,21.7256,8443.63,0.721718
4464,21.8037,8475.63,0.725196
4480,21.8818,8502.18,0.726756
4496,21.96,8530.47,0.73069
4512,22.0381,8559.26,0.733056
4528,22.1162,8589.03,0.735351
4544,22.1943,8624.9,0.736931
4560,22.2725,8622.72,0.739636
4576,22.3506,8675.88,0.742966
4592,22.4287,8697.14,0.744286
4608,22.5068,8754.98,0.74763
4624,22.585,8776.54,0.7496441
4640,22.6631,8804.07,0.752975
4656,22.7412,8840.72,0.755412
4672,22.8193,8855.92,0.757802
4688,22.8975,8911.03,0.760748
4704,22.9756,8901.15,0.7629236
4720,23.0537,8965.9,0.766778
4736,23.1318,8990.2,0.768769
4752,23.21,9036.19,0.771952
4768,23.2881,9034.81,0.7723304
4784,23.3662,9067.87,0.777132
4800,23.4443,9104.26,0.779357
4816,23.5225,9131.48,0.7811085
4832,23.6006,9185.77,0.785107
4848,23.6787,9171.99,0.786767
4864,23.7568,9225.96,0.789382
4880,23.835,9240.42,0.790952
4896,23.9131,9298.94,0.794751
4912,23.9912,9315.18,0.795674
4928,24.0693,9353.38,0.799749
4944,24.1475,9387.37,0.800929
4960,24.2256,9426.92,0.806333
4976,24.3037,9444.03,0.808363
4992,24.3818,9449.13,0.808356
5008,24.46,9507.51,0.811712
5024,24.5381,9533.77,0.8144955
5040,24.6162,9575.59,0.818506
5056,24.6943,9563.23,0.819109
5072,24.7725,9620.26,0.823628
5088,24.8506,9655.46,0.826959
5104,24.9287,9675.37,0.829007
5120,25.0068,9713.37,0.831166
5136,25.085,9751.46,0.833888
5152,25.1631,9775.96,0.835515
5168,25.2412,9790.74,0.837093
5184,25.3193,9845.79,0.842104
5200,25.3975,9847.3,0.8425681
5216,25.4756,9901.53,0.847161
5232,25.5537,9917.11,0.848964
5248,25.6318,9957.61,0.851574
5264,25.71,9978.69,0.853928
5280,25.7881,10003.7,0.8558
5296,25.8662,10034.9,0.858959
5312,25.9443,10065.6,0.860668
5328,26.0225,10098.3,0.8638
5344,26.1006,10093.4,0.866118
5360,26.1787,10160.6,0.870617
5376,26.2568,10151.8,0.870584
5392,26.335,10231.8,0.875936
5408,26.4131,10256.6,0.876983
5424,26.4912,10285.4,0.880681
5440,26.5693,10304.4,0.882292
5456,26.6475,10325.1,0.884727
5472,26.7256,10375.9,0.888119
5488,26.8037,10397.6,0.890372
5504,26.8818,10435.1,0.89243
5520,26.96,10443.3,0.895197
5536,27.0381,10488.1,0.897905
5552,27.1162,10521.4,0.901054
5568,27.1943,10546.7,0.901997
5584,27.2725,10574.7,0.904763
5600,27.3506,10593.1,0.909926
5616,27.4287,10659.4,0.9138937
5632,27.5068,10671.5,0.91388
5648,27.585,10709.5,0.916874
5664,27.6631,10722.5,0.917526
5680,27.7412,10764.7,0.921924
5696,27.8193,10781.9,0.92326
5712,27.8975,10816.9,0.927952
5728,27.9756,10855.5,0.9296357
5744,28.0537,10880.6,0.933181
5760,28.1318,10930.5,0.935227
5776,28.21,10935,0.936222
5792,28.2881,10981.9,0.94068
5808,28.3662,10970.7,0.942322
5824,28.4443,11040.6,0.946316
5840,28.5225,11053.1,0.947967
5856,28.6006,11101.5,0.951306
5872,28.6787,11119.3,0.950909
5888,28.7568,11146.1,0.95616
5904,28.835,11187.2,0.957694
5920,28.9131,11218.3,0.96109
5936,28.9912,11254.9,0.963402
5952,29.0693,11258.6,0.96633
5968,29.1475,11316.5,0.971422
5984,29.2256,11337.7,0.972335
6000,29.3037,11374.2,0.973915
6016,29.3818,11372,0.975527
6032,29.46,11413.9,0.980138
6048,29.5381,11452.8,0.982615
6064,29.6162,11471.8,0.98474
6080,29.6943,11512.9,0.987691
6096,29.7725,11506.4,0.990029
6112,29.8506,11578.6,0.993966
6128,29.9287,11593.6,0.994804
6144,30.0068,11635.6,0.9991706
6160,30.085,11625.3,0.9986465
6176,30.1631,11683,1.0024
6192,30.2412,11732.6,1.00626
6208,30.3193,11747.6,1.00746
6224,30.3975,11782.6,1.01108
6240,30.4756,11805.3,1.01152
6256,30.5537,11842.5,1.01627
6272,30.6318,11865,1.01726
6288,30.71,11903.4,1.02192
6304,30.7881,11916.8,1.02152
6320,30.8662,11956.4,1.026518
6336,30.9443,11982.5,1.0281
6352,31.0225,12026.4,1.03249
6368,31.1006,12049.3,1.0347
6384,31.1787,12061.3,1.03655
6400,31.2568,12106.1,1.03826
6416,31.335,12130.6,1.03958
6432,31.4131,12179,1.04507
6448,31.4912,12193.7,1.045244
6464,31.5693,12229.8,1.05032
6480,31.6475,12265.6,1.05142
6496,31.7256,12292.3,1.05524
6512,31.8037,12323.6,1.05691
6528,31.8818,12331.1,1.05955
6544,31.96,12382.7,1.06144
6560,32.0381,12406.6,1.065452
6576,32.1162,12442.6,1.06784
6592,32.1943,12453.9,1.06894
6608,32.2725,12504.8,1.07353
6624,32.3506,12532.3,1.0755
6640,32.4287,12584.1,1.07977
6656,32.5068,12579.4,1.07957
6672,32.585,12607.3,1.08331
6688,32.6631,12652.4,1.08773
6704,32.7412,12670,1.08855
6720,32.8193,12719.4,1.09277
6736,32.8975,12715.5,1.09395
6752,32.9756,12774.3,1.09697
6768,33.0537,12779.3,1.09937
6784,33.1318,12823.2,1.10371
6800,33.21,12857.9,1.10433
6816,33.2881,12879.6,1.10852
6832,33.3662,12915.4,1.10922
6848,33.4443,12930.6,1.11292
6864,33.5225,12986,1.1162
6880,33.6006,12998.9,1.11627
6896,33.6787,13040.3,1.12025
6912,33.7568,13047.6,1.12157
6928,33.835,13096.7,1.12618
6944,33.9131,13133,1.12881
6960,33.9912,13156.8,1.13039
6976,34.0693,13180.8,1.13345
6992,34.1475,13207.8,1.13608
7008,34.2256,13250.6,1.13868
7024,34.3037,13253.8,1.13989
7040,34.3818,13299.9,1.14431
7056,34.46,13302.7,1.146
7072,34.5381,13366.2,1.149397
7088,34.6162,13391.9,1.15097
7104,34.6943,13429.3,1.15401
7120,34.7725,13439.4,1.1557
7136,34.8506,13473.6,1.15985
7152,34.9287,13509.2,1.162
7168,35.0068,13528.3,1.16415
7184,35.085,13575.9,1.16751
7200,35.1631,13564.7,1.17037
7216,35.2412,13628,1.17214
7232,35.3193,13645,1.17483
7248,35.3975,13681.9,1.17741
7264,35.4756,13703.8,1.181092
7280,35.5537,13736,1.18242
7296,35.6318,13774.2,1.1859
7312,35.71,13796.4,1.187
7328,35.7881,13821.1,1.19055
7344,35.8662,13825.2,1.19294
7360,35.9443,13890.3,1.19368
7376,36.0225,13915.5,1.19789
7392,36.1006,13950.6,1.20113
7408,36.1787,13957.8,1.201422
7424,36.2568,14002.6,1.20545
7440,36.335,14039.3,1.209111
7456,36.4131,14068.6,1.21117
7472,36.4912,14106.2,1.21362
7488,36.5693,14081.7,1.21711
7504,36.6475,14145.4,1.21853
7520,36.7256,14180.2,1.221324
7536,36.8037,14216,1.22362
7552,36.8818,14225.1,1.22618
7568,36.96,14259.9,1.22989
7584,37.0381,14274.6,1.232565
7600,37.1162,14326.2,1.23515
7616,37.1943,14352.9,1.23798
7632,37.2725,14358.3,1.23825
7648,37.3506,14406.2,1.24241
7664,37.4287,14433.4,1.24433
7680,37.5068,14474.9,1.24697
7696,37.585,14469.8,1.24878
7712,37.6631,14533.1,1.25225
7728,37.7412,14554.2,1.25534
7744,37.8193,14587.2,1.25848
7760,37.8975,14618.2,1.26078
7776,37.9756,14642.9,1.2627
7792,38.0537,14665.3,1.26481
7808,38.1318,14686.2,1.2673
7824,38.21,14735.7,1.26853
7840,38.2881,14735.2,1.27337
7856,38.3662,14795.9,1.2768
7872,38.4443,14811.6,1.27692
7888,38.5225,14855.5,1.28291
7904,38.6006,14883.3,1.283249
7920,38.6787,14875.5,1.288
7936,38.7568,14940.2,1.28908
7952,38.835,14954.6,1.2914
7968,38.9131,15007.2,1.29461
7984,38.9912,14979.2,1.2961
8000,39.0693,15045.6,1.30017
8016,39.1475,15073.3,1.30187
8032,39.2256,15118.7,1.30553
8048,39.3037,15137.1,1.30794
8064,39.3818,15150.6,1.30925
8080,39.46,15180.9,1.31144
8096,39.5381,15212.8,1.31457
8112,39.6162,15260.5,1.31897
8128,39.6943,15266.9,1.31913
8144,39.7725,15315.4,1.3228
8160,39.8506,15313.8,1.3252
8176,39.9287,15385.7,1.32908
8192,40.0068,15368.2,1.33016
8208,40.085,15425,1.333813
8224,40.1631,15454.3,1.33596
8240,40.2412,15487.3,1.33785
8256,40.3193,15524.2,1.34149
8272,40.3975,15540.2,1.3423
8288,40.4756,15571.5,1.34632
8304,40.5537,15584.8,1.34759
8320,40.6318,15639.1,1.35223
8336,40.71,15652.7,1.35232
8352,40.7881,15697.6,1.35706
8368,40.8662,15709.2,1.35843
8384,40.9443,15742,1.36085
8400,41.0225,15787.1,1.365006
8416,41.1006,15792.2,1.36651
8432,41.1787,15833.2,1.36865
8448,41.2568,15851,1.37179
8464,41.335,15901.4,1.3764
8480,41.4131,15924.3,1.37687
8496,41.4912,15962.9,1.38085
8512,41.5693,15969,1.38318
8528,41.6475,15995.7,1.38622
8544,41.7256,16043.8,1.3887
8560,41.8037,16050.4,1.388851
8576,41.8818,16097.2,1.39279
8592,41.96,16096,1.39512
8608,42.0381,16163.5,1.3989
8624,42.1162,16178.3,1.39975
8640,42.1943,16224.3,1.40449
8656,42.2725,16240.6,1.40597
8672,42.3506,16270.7,1.40979
8688,42.4287,16308.7,1.41206
8704,42.5068,16323.1,1.41481
8720,42.585,16354.1,1.4164
8736,42.6631,16355.5,1.41982
8752,42.7412,16431.6,1.42249
8768,42.8193,16444.7,1.42338
8784,42.8975,16478,1.42804
8800,42.9756,16488.8,1.42828
8816,43.0537,16535.7,1.43343
8832,43.1318,16563.1,1.43505
8848,43.21,16593.9,1.438
8864,43.2881,16631.9,1.44021
8880,43.3662,16600.2,1.44339
8896,43.4443,16681.4,1.44558
8912,43.5225,16692.9,1.447631
8928,43.6006,16745.4,1.450407
8944,43.6787,16748.6,1.45311
8960,43.7568,16793.7,1.45753
8976,43.835,16834.5,1.45897
8992,43.9131,16837.3,1.461418
9008,43.9912,16890.7,1.46367
9024,44.0693,16889.2,1.46419
9040,44.1475,16943.8,1.46935
9056,44.2256,16957.8,1.47144
9072,44.3037,17006.1,1.474134
9088,44.3818,16979.9,1.47471
9104,44.46,17038.6,1.47925
9120,44.5381,17079.2,1.48122
9136,44.6162,17121.7,1.48475
9152,44.6943,17141.5,1.48707
9168,44.7725,17161.3,1.489275
9184,44.8506,17208.4,1.491354
9200,44.9287,17231.9,1.49567
9216,45.0068,17265.4,1.49704
9232,45.085,17244.6,1.49945
9248,45.1631,17315.5,1.50217
9264,45.2412,17333.5,1.50426
9280,45.3193,17375.5,1.5076
9296,45.3975,17398.6,1.51144
9312,45.4756,17406.2,1.512134
9328,45.5537,17450,1.51451
9344,45.6318,17489.8,1.51828
9360,45.71,17521.4,1.52175
9376,45.7881,17514.4,1.52261
9392,45.8662,17582.6,1.5264
9408,45.9443,17593,1.52767
9424,46.0225,17633.7,1.53218
9440,46.1006,17644.2,1.53221
9456,46.1787,17686.3,1.53566
9472,46.2568,17713.6,1.53973
9488,46.335,17741.8,1.54156
9504,46.4131,17778.7,1.54485
9520,46.4912,17782.3,1.54535
9536,46.5693,17836.1,1.5492
9552,46.6475,17851.2,1.5506
9568,46.7256,17894,1.55432
9584,46.8037,17923.2,1.55722
9600,46.8818,17950.1,1.55973
9616,46.96,17980.9,1.56377
9632,47.0381,18001.5,1.56484
9648,47.1162,18036.3,1.56769
9664,47.1943,18053.7,1.57065
9680,47.2725,18081.9,1.57255
9696,47.3506,18101.8,1.575129
9712,47.4287,18158.7,1.57863
9728,47.5068,18163.9,1.579877
9744,47.585,18206.7,1.58353
9760,47.6631,18224.8,1.58586
9776,47.7412,18261.4,1.58839
9792,47.8193,18290.9,1.59195
9808,47.8975,18317.1,1.59264
9824,47.9756,18344.1,1.59577
9840,48.0537,18367.2,1.599866
9856,48.1318,18420.4,1.60331
9872,48.21,18435.6,1.60316
9888,48.2881,18468,1.60679
9904,48.3662,18474.3,1.60909
9920,48.4443,18511.9,1.6131
9936,48.5225,18561.5,1.61514
9952,48.6006,18578.2,1.61739
9968,48.6787,18615.3,1.61987
9984,48.7568,18595.8,1.62095
10000,48.835,18676.2,1.62535
10016,48.9131,18697.8,1.62837
10032,48.9912,18731.3,1.63029
10048,49.0693,18731.8,1.63241
10064,49.1475,18777.3,1.63774
10080,49.2256,18806,1.63792
10096,49.3037,18828.3,1.64092
10112,49.3818,18867.9,1.64402
10128,49.46,18867.5,1.64592
10144,49.5381,18937.7,1.64911
10160,49.6162,18924.9,1.65075
10176,49.6943,18985,1.65541
10192,49.7725,18984.9,1.65607
10208,49.8506,19035.5,1.6595
10224,49.9287,19059.6,1.66222
10240,50.0068,19083.7,1.66393
10256,50.085,19123.1,1.66755
10272,50.1631,19118.7,1.66946
10288,50.2412,19185.4,1.67189
10304,50.3193,19209.7,1.67574
10320,50.3975,19245.3,1.67688
10336,50.4756,19226.3,1.67988
10352,50.5537,19293.7,1.682086
10368,50.6318,19321,1.68661
10384,50.71,19344.1,1.68855
10400,50.7881,19358.6,1.68991
10416,50.8662,19382,1.69262
10432,50.9443,19437.4,1.69624
10448,51.0225,19462.6,1.69791
10464,51.1006,19488.9,1.70063
10480,51.1787,19478.4,1.70265
10496,51.2568,19539.2,1.70556
10512,51.335,19557.6,1.70798
10528,51.4131,19609.1,1.71152
10544,51.4912,19609.1,1.71255
10560,51.5693,19625.8,1.71505
10576,51.6475,19677.8,1.71884
10592,51.7256,19711.3,1.72222
10608,51.8037,19744,1.72435
10624,51.8818,19762.1,1.72564
10640,51.96,19795.7,1.72881
10656,52.0381,19816.3,1.7328
10672,52.1162,19841.9,1.73373
10688,52.1943,19867.1,1.73641
10704,52.2725,19897.8,1.73957
10720,52.3506,19931,1.74247
10736,52.4287,19952.9,1.74357
10752,52.5068,20002.3,1.74797
10768,52.585,19998.9,1.74849
10784,52.6631,20056.2,1.75352
10800,52.7412,20058.8,1.75451
10816,52.8193,20115.2,1.75871
10832,52.8975,20118.7,1.75988
10848,52.9756,20146,1.76388
10864,53.0537,20173.1,1.76487
10880,53.1318,20212.1,1.76828
10896,53.21,20250.8,1.77183
10912,53.2881,20263.4,1.77183
10928,53.3662,20288.6,1.77601
10944,53.4443,20303.6,1.7773
10960,53.5225,20362.9,1.78186
10976,53.6006,20379.6,1.78283
10992,53.6787,20420.6,1.78633
11008,53.7568,20449.2,1.787957
11024,53.835,20467.1,1.79174
11040,53.9131,20498.6,1.79385
11056,53.9912,20503,1.79529
11072,54.0693,20554.7,1.79886
11088,54.1475,20590.6,1.80155
11104,54.2256,20632.9,1.80515
11120,54.3037,20620.3,1.80589
11136,54.3818,20676.1,1.80943
11152,54.46,20700.7,1.81101
11168,54.5381,20741.8,1.81582
11184,54.6162,20760.5,1.81782
11200,54.6943,20770.1,1.81964
11216,54.7725,20810.4,1.82187
11232,54.8506,20840.6,1.82487
11248,54.9287,20878.4,1.82866
11264,55.0068,20878.2,1.83021
11280,55.085,20924.2,1.83282
11296,55.1631,20946.3,1.83464
11312,55.2412,20975.4,1.83958
11328,55.3193,21009.3,1.84074
11344,55.3975,21032.9,1.8426
11360,55.4756,21068.6,1.84736
11376,55.5537,21092.8,1.84897
11392,55.6318,21140.5,1.85289
11408,55.71,21150.2,1.85433
11424,55.7881,21181.8,1.85782
11440,55.8662,21195,1.858368
11456,55.9443,21242.5,1.86312
11472,56.0225,21267.5,1.86463
11488,56.1006,21295.3,1.86706
11504,56.1787,21327.6,1.86958
11520,56.2568,21346,1.87129
11536,56.335,21378.1,1.87587
11552,56.4131,21407.5,1.87743
11568,56.4912,21448.3,1.88066
11584,56.5693,21451.7,1.88136
11600,56.6475,21485.1,1.886528
11616,56.7256,21530.3,1.887725
11632,56.8037,21553.6,1.89075
11648,56.8818,21577.4,1.89224
11664,56.96,21584.6,1.89655
11680,57.0381,21639.7,1.89889
11696,57.1162,21651.4,1.90077
11712,57.1943,21688.6,1.90329
11728,57.2725,21680.9,1.90537
11744,57.3506,21733.2,1.90924
11760,57.4287,21785.8,1.912
11776,57.5068,21815.7,1.9148
11792,57.585,21834.2,1.91664
11808,57.6631,21839.9,1.91962
11824,57.7412,21889.9,1.92174
11840,57.8193,21893.5,1.92466
11856,57.8975,21958.6,1.92828
11872,57.9756,21953.1,1.92952
11888,58.0537,21994.4,1.93333
11904,58.1318,22032.3,1.93447
11920,58.21,22066.7,1.93744
11936,58.2881,22074.3,1.93862
11952,58.3662,22106.4,1.94283
11968,58.4443,22128.1,1.94497
11984,58.5225,22166.2,1.94795
12000,58.6006,22215.8,1.95143
12016,58.6787,22206.5,1.95367
12032,58.7568,22245.9,1.95453
12048,58.835,22258.7,1.95781
12064,58.9131,22319.9,1.96038
12080,58.9912,22341.9,1.96342
12096,59.0693,22354.2,1.96624
12112,59.1475,22395.8,1.9672
12128,59.2256,22420.9,1.97082
12144,59.3037,22455.5,1.97463
12160,59.3818,22462.2,1.975845
12176,59.46,22517.7,1.97938
12192,59.5381,22538.6,1.98262
12208,59.6162,22583.8,1.98559
12224,59.6943,22598.6,1.98778
12240,59.7725,22631.6,1.99032
12256,59.8506,22655.3,1.99389
12272,59.9287,22684.8,1.9952
12288,60.0068,22719.9,1.99937
12304,60.085,22728.3,1.99955
12320,60.1631,22773.9,2.00315
12336,60.2412,22781.6,2.00563
12352,60.3193,22839.5,2.00941
12368,60.3975,22812.3,2.00984
12384,60.4756,22880.3,2.01432
12400,60.5537,22897.7,2.01612
12416,60.6318,22936.4,2.01882
12432,60.71,22965.5,2.02109
12448,60.7881,22974.7,2.02373
12464,60.8662,23013.9,2.026449
12480,60.9443,23023,2.02852
12496,61.0225,23080.2,2.03282
12512,61.1006,23077.3,2.03261
12528,61.1787,23134,2.037178
12544,61.2568,23148.3,2.03866
12560,61.335,23192.4,2.04269
12576,61.4131,23221.4,2.04534
12592,61.4912,23237.5,2.0468
12608,61.5693,23269.2,2.04999
12624,61.6475,23272.3,2.05328
12640,61.7256,23328.1,2.05463
12656,61.8037,23336.7,2.05655
12672,61.8818,23377.4,2.05906
12688,61.96,23394.3,2.06203
12704,62.0381,23428.7,2.06543
12720,62.1162,23449.6,2.06725
12736,62.1943,23476.6,2.06993
12752,62.2725,23485.4,2.072021
12768,62.3506,23521.6,2.075
12784,62.4287,23562.7,2.0792
12800,62.5068,23585.8,2.07924
12816,62.585,23622.3,2.08373
12832,62.6631,23625,2.083544
12848,62.7412,23686,2.08814
12864,62.8193,23701.1,2.09083
12880,62.8975,23728.7,2.09279
12896,62.9756,23750.2,2.09605
12912,63.0537,23776.3,2.09736
12928,63.1318,23819.3,2.10035
12944,63.21,23825.2,2.10238
12960,63.2881,23872,2.10647
12976,63.3662,23873.2,2.10816
12992,63.4443,23922.4,2.11161
13008,63.5225,23956.9,2.114646
13024,63.6006,23973.4,2.11726
13040,63.6787,23988,2.119051
13056,63.7568,24029.9,2.12182
13072,63.835,24064.9,2.12541
13088,63.9131,24073.1,2.12616
13104,63.9912,24122.6,2.13073
13120,64.0693,24118.6,2.13113
13136,64.1475,24182.8,2.13666
13152,64.2256,24198.8,2.137522
13168,64.3037,24228.8,2.14093
13184,64.3818,24248.3,2.14206
13200,64.46,24262,2.14499
13216,64.5381,24315,2.14871
13232,64.6162,24321.1,2.150106
13248,64.6943,24355.9,2.15253
13264,64.7725,24374.6,2.15688
13280,64.8506,24420,2.15834
13296,64.9287,24437.2,2.16014
13312,65.0068,24473.3,2.1632
13328,65.085,24499.3,2.1668
13344,65.1631,24523.4,2.16906
13360,65.2412,24547.8,2.171391
13376,65.3193,24573.9,2.17488
13392,65.3975,24607.8,2.17617
13408,65.4756,24625.1,2.17867
13424,65.5537,24647.2,2.1819
13440,65.6318,24682.3,2.18367
13456,65.71,24718.2,2.1882
13472,65.7881,24738.6,2.18916
13488,65.8662,24767,2.19325
13504,65.9443,24803.4,2.19396
13520,66.0225,24830.1,2.19821
13536,66.1006,24856.9,2.20111
13552,66.1787,24852.5,2.20317
13568,66.2568,24896.7,2.2054
13584,66.335,24924.9,2.20846
13600,66.4131,24973.4,2.21318
13616,66.4912,24978.9,2.21251
13632,66.5693,24998.7,2.2159
13648,66.6475,25037.9,2.21852
13664,66.7256,25049.5,2.22159
13680,66.8037,25097.7,2.22343
13696,66.8818,25118.4,2.22559
13712,66.96,25152,2.228647
13728,67.0381,25170.1,2.22991
13744,67.1162,25203.9,2.23394
13760,67.1943,25205.4,2.23579
13776,67.2725,25258.1,2.239475
13792,67.3506,25281.6,2.2415
13808,67.4287,25324.9,2.24474
13824,67.5068,25354,2.24763
13840,67.585,25341.1,2.249243
13856,67.6631,25392.7,2.25261
13872,67.7412,25406.3,2.25501
13888,67.8193,25470.1,2.25944
13904,67.8975,25473.7,2.25886
13920,67.9756,25501.2,2.26314
13936,68.0537,25527.5,2.26488
13952,68.1318,25560.2,2.26857
13968,68.21,25600,2.27147
13984,68.2881,25598.1,2.27205
14000,68.3662,25646.2,2.27576
14016,68.4443,25644.3,2.27805
14032,68.5225,25698.1,2.28056
14048,68.6006,25728.2,2.28343
14064,68.6787,25760.2,2.28651
14080,68.7568,25779.9,2.28853
14096,68.835,25816.9,2.29089
14112,68.9131,25846.8,2.2943
14128,68.9912,25859.6,2.29614
14144,69.0693,25881.6,2.29906
14160,69.1475,25915,2.30222
14176,69.2256,25960.5,2.305676
14192,69.3037,25957.7,2.30654
14208,69.3818,26010,2.31097
14224,69.46,26019.3,2.31117
14240,69.5381,26064.9,2.31589
14256,69.6162,26087,2.31888
14272,69.6943,26105,2.32185
14288,69.7725,26132.7,2.32262
14304,69.8506,26167.2,2.32496
14320,69.9287,26198.4,2.32859
14336,70.0068,26194.7,2.32945
14352,70.085,26254.1,2.33373
14368,70.1631,26260.6,2.33543
14384,70.2412,26301.4,2.33991
14400,70.3193,26333.8,2.3409
14416,70.3975,26353.7,2.34393
14432,70.4756,26369.7,2.34707
14448,70.5537,26404.8,2.34818
14464,70.6318,26446.4,2.35316
14480,70.71,26460.3,2.35303
14496,70.7881,26494,2.35612
14512,70.8662,26490.9,2.36036
14528,70.9443,26550,2.36221
14544,71.0225,26566.5,2.36406
14560,71.1006,26609.9,2.36768
14576,71.1787,26629.7,2.36982
14592,71.2568,26647.1,2.37199
14608,71.335,26691.1,2.3757
14624,71.4131,26715.2,2.37678
14640,71.4912,26740.8,2.37936
14656,71.5693,26737.5,2.38258
14672,71.6475,26798.7,2.38396
14688,71.7256,26817.4,2.38717
14704,71.8037,26859.6,2.39118
14720,71.8818,26865,2.39268
14736,71.96,26901.1,2.39546
14752,72.0381,26928.5,2.39747
14768,72.1162,26956.7,2.40092
14784,72.1943,26985,2.40421
14800,72.2725,26994.3,2.40488
14816,72.3506,27041.5,2.40904
14832,72.4287,27061.5,2.412122
14848,72.5068,27099.1,2.41488
14864,72.585,27112.6,2.4164
14880,72.6631,27146,2.41918
14896,72.7412,27166.2,2.42101
14912,72.8193,27198.2,2.42231
14928,72.8975,27231.4,2.42795
14944,72.9756,27245.7,2.42758
14960,73.0537,27285.1,2.433636
14976,73.1318,27288,2.4326
14992,73.21,27337.6,2.43785
15008,73.2881,27356.5,2.43841
15024,73.3662,27391.1,2.44281
15040,73.4443,27405,2.44492
15056,73.5225,27442,2.44799
15072,73.6006,27479.1,2.451139
15088,73.6787,27473.5,2.45262
15104,73.7568,27515.2,2.45497
15120,73.835,27520.6,2.45688
15136,73.9131,27589.4,2.46055
15152,73.9912,27605.7,2.46263
15168,74.0693,27633.4,2.46527
15184,74.1475,27622.6,2.46811
15200,74.2256,27701.5,2.47055
15216,74.3037,27718.5,2.47298
15232,74.3818,27738.7,2.47572
15248,74.46,27777.1,2.47787
15264,74.5381,27786.1,2.48089
15280,74.6162,27831,2.48474
15296,74.6943,27832.9,2.48551
15312,74.7725,27874.6,2.48842
15328,74.8506,27899.4,2.49005
15344,74.9287,27931.9,2.49422
15360,75.0068,27954.3,2.49706
15376,75.085,27955.8,2.4982
15392,75.1631,28000.6,2.50285
15408,75.2412,28022.2,2.50266
15424,75.3193,28076.4,2.50819
15440,75.3975,28083,2.5096
15456,75.4756,28116.8,2.5135
15472,75.5537,28144.2,2.51507
15488,75.6318,28179.3,2.51833
15504,75.71,28200.1,2.51954
15520,75.7881,28233.9,2.52375
15536,75.8662,28256.5,2.5255
15552,75.9443,28270.3,2.52735
15568,76.0225,28305.6,2.53172
15584,76.1006,28304.1,2.53364
15600,76.1787,28362.8,2.53602
15616,76.2568,28366.8,2.53707
15632,76.335,28423.7,2.54147
15648,76.4131,28444,2.54412
15664,76.4912,28468,2.546042
15680,76.5693,28498.6,2.547924
15696,76.6475,28517.5,2.55131
15712,76.7256,28550,2.55379
15728,76.8037,28571.7,2.55613
15744,76.8818,28607.8,2.56009
15760,76.96,28617.3,2.56214
15776,77.0381,28661.7,2.564441
15792,77.1162,28668.1,2.56511
15808,77.1943,28713.7,2.570761
15824,77.2725,28736.4,2.57171
15840,77.3506,28752.7,2.57494
15856,77.4287,28797.2,2.57797
15872,77.5068,28824.3,2.57937
15888,77.585,28849.8,2.58373
15904,77.6631,28830.6,2.58533
15920,77.7412,28906.4,2.58922
15936,77.8193,28930.4,2.59127
15952,77.8975,28964.7,2.59334
15968,77.9756,28974.3,2.594589
15984,78.0537,28994.1,2.59938
16000,78.1318,29035.2,2.60103
16016,78.21,29052.4,2.60204
16032,78.2881,29088.4,2.60702
16048,78.3662,29096.5,2.60863
16064,78.4443,29140.3,2.61098
16080,78.5225,29162.5,2.61434
16096,78.6006,29201.1,2.61798
16112,78.6787,29202.8,2.61768
16128,78.7568,29241.2,2.62239
16144,78.835,29281.3,2.62539
16160,78.9131,29308.6,2.625752
16176,78.9912,29339.7,2.62966
16192,79.0693,29346.6,2.63291
16208,79.1475,29396.2,2.63497
16224,79.2256,29414.4,2.63815
16240,79.3037,29455,2.64144
16256,79.3818,29454,2.64142
16272,79.46,29493.5,2.64635
16288,79.5381,29521.3,2.6485
16304,79.6162,29554.2,2.65262
16320,79.6943,29573.6,2.65458
16336,79.7725,29569.2,2.65722
16352,79.8506,29635.2,2.65972
16368,79.9287,29651.2,2.66106
16384,80.0068,29686,2.66333
16400,80.085,29682.7,2.66498
16416,80.1631,29736.2,2.66928
16432,80.2412,29762.1,2.67218
16448,80.3193,29790.4,2.6751
16464,80.3975,29822.9,2.67805
16480,80.4756,29827.1,2.68031
16496,80.5537,29869.7,2.68352
16512,80.6318,29898.2,2.68521
16528,80.71,29929.2,2.68775
16544,80.7881,29925,2.68848
16560,80.8662,29977,2.69234
16576,80.9443,30002.6,2.69631
16592,81.0225,30038,2.69912
16608,81.1006,30056.2,2.70092
16624,81.1787,30067.6,2.70337
16640,81.2568,30089.3,2.7059
16656,81.335,30127.4,2.7092
16672,81.4131,30166.4,2.71237
16688,81.4912,30186.2,2.71281
16704,81.5693,30205.6,2.71571
16720,81.6475,30236.4,2.71811
16736,81.7256,30267.6,2.72118
16752,81.8037,30290.1,2.72384
16768,81.8818,30308.2,2.72713
16784,81.96,30343.6,2.72913
16800,82.0381,30375.4,2.73258
16816,82.1162,30406.1,2.73468
16832,82.1943,30412.1,2.73695
16848,82.2725,30460.4,2.74004
16864,82.3506,30488.1,2.74148
16880,82.4287,30518.5,2.74565
16896,82.5068,30535.4,2.747467
16912,82.585,30564.5,2.74907
16928,82.6631,30573.4,2.75313
16944,82.7412,30620.9,2.75546
16960,82.8193,30663.1,2.75865
16976,82.8975,30666.2,2.75913
16992,82.9756,30701.9,2.76331
17008,83.0537,30708.7,2.76406
17024,83.1318,30755.8,2.76945
17040,83.21,30771.1,2.7711
17056,83.2881,30813.2,2.77384
17072,83.3662,30827.6,2.77568
17088,83.4443,30846.7,2.77937
17104,83.5225,30894.8,2.78175
17120,83.6006,30907.2,2.78266
17136,83.6787,30937.2,2.78644
17152,83.7568,30941.5,2.78784
17168,83.835,30996.4,2.7925
17184,83.9131,31015.8,2.79354
17200,83.9912,31050.3,2.79654
17216,84.0693,31069.4,2.79871
17232,84.1475,31099.5,2.80151
17248,84.2256,31141.7,2.80491
17264,84.3037,31150.4,2.80668
17280,84.3818,31188.8,2.81112
17296,84.46,31197.8,2.81243
17312,84.5381,31240.7,2.81605
17328,84.6162,31246.5,2.81727
17344,84.6943,31277.7,2.82032
17360,84.7725,31310.3,2.82233
17376,84.8506,31330.2,2.82557
17392,84.9287,31378.3,2.82977
17408,85.0068,31401.3,2.830682
17424,85.085,31431.7,2.8322
17440,85.1631,31438.9,2.83586
17456,85.2412,31486.3,2.83956
17472,85.3193,31502.7,2.84166
17488,85.3975,31528.5,2.84321
17504,85.4756,31522.8,2.84482
17520,85.5537,31580,2.84922
17536,85.6318,31618.8,2.85216
17552,85.71,31627.4,2.85344
17568,85.7881,31667.6,2.85782
17584,85.8662,31670.1,2.85893
17600,85.9443,31727.6,2.86297
17616,86.0225,31736.4,2.86441
17632,86.1006,31762.5,2.86654
17648,86.1787,31761.2,2.86882
17664,86.2568,31821.8,2.8716
17680,86.335,31844.7,2.87587
17696,86.4131,31876.8,2.8771
17712,86.4912,31900.5,2.87935
17728,86.5693,31896,2.88347
17744,86.6475,31952.4,2.88508
17760,86.7256,31970.4,2.88832
17776,86.8037,32019.8,2.89058
17792,86.8818,31993.3,2.89234
17808,86.96,32063,2.89477
17824,87.0381,32082.7,2.89656
17840,87.1162,32115.4,2.90192
17856,87.1943,32135.6,2.903136
17872,87.2725,32142.1,2.90557
17888,87.3506,32196.1,2.90935
17904,87.4287,32207.7,2.911819
17920,87.5068,32245,2.9148
17936,87.585,32258.3,2.91552
17952,87.6631,32284.1,2.91838
17968,87.7412,32314.8,2.92127
17984,87.8193,32354.2,2.92469
18000,87.8975,32367.3,2.92623
18016,87.9756,32382.7,2.92917
18032,88.0537,32412,2.93305
18048,88.1318,32435.1,2.93478
18064,88.21,32486,2.93654
18080,88.2881,32496.9,2.94065
18096,88.3662,32534.7,2.94307
18112,88.4443,32544.6,2.94508
18128,88.5225,32591.4,2.94874
18144,88.6006,32603.8,2.95002
18160,88.6787,32628.9,2.95264
18176,88.7568,32660.5,2.95558
18192,88.835,32681.5,2.95754
18208,88.9131,32722.4,2.961024
18224,88.9912,32732.6,2.96295
18240,89.0693,32766.7,2.96639
18256,89.1475,32792.1,2.967994
18272,89.2256,32833.5,2.97144
18288,89.3037,32846.1,2.97314
18304,89.3818,32878.3,2.97629
18320,89.46,32890.1,2.97805
18336,89.5381,32928.8,2.98195
18352,89.6162,32953.7,2.98436
18368,89.6943,32977.7,2.9869
18384,89.7725,33013,2.98967
18400,89.8506,33021,2.99245
18416,89.9287,33067.2,2.9957
18432,90.0068,33083.9,2.99667
18448,90.085,33112.6,3.00069
18464,90.1631,33139.6,3.00335
18480,90.2412,33156.5,3.00456
18496,90.3193,33193,3.00669
18512,90.3975,33217.5,3.01134
18528,90.4756,33242.6,3.01359
18544,90.5537,33252.4,3.01468
18560,90.6318,33305.7,3.0188
18576,90.71,33321.3,3.02133
18592,90.7881,33354.8,3.02326
18608,90.8662,33374.1,3.02518
18624,90.9443,33400,3.02774
18640,91.0225,33433.7,3.03201
18656,91.1006,33453.9,3.033344
18672,91.1787,33476.9,3.03614
18688,91.2568,33499.8,3.03913
18704,91.335,33537.5,3.04207
18720,91.4131,33546.1,3.04358
18736,91.4912,33586,3.04649
18752,91.5693,33602.6,3.05016
18768,91.6475,33633.8,3.05108
18784,91.7256,33662.4,3.05506
18800,91.8037,33691,3.05813
18816,91.8818,33705.5,3.059361
18832,91.96,33726.5,3.06239
18848,92.0381,33776,3.06515
18864,92.1162,33787.9,3.06864
18880,92.1943,33816.2,3.071491
18896,92.2725,33833.3,3.07261
18912,92.3506,33872.3,3.07585
18928,92.4287,33888.8,3.07795
18944,92.5068,33923.2,3.08158
18960,92.585,33950.3,3.081907
18976,92.6631,33957.8,3.08556
18992,92.7412,34003.7,3.0886
19008,92.8193,34012.2,3.09108
19024,92.8975,34043.5,3.09349
19040,92.9756,34042.6,3.09338
19056,93.0537,34103.5,3.09972
19072,93.1318,34128.5,3.10139
19088,93.21,34142.3,3.10394
19104,93.2881,34167.8,3.10502
19120,93.3662,34195.2,3.1093
19136,93.4443,34235.9,3.111773
19152,93.5225,34247.2,3.11418
19168,93.6006,34287.4,3.11656
19184,93.6787,34272.7,3.11843
19200,93.7568,34324,3.12134
19216,93.835,34349.1,3.12303
19232,93.9131,34374.7,3.12642
19248,93.9912,34395.1,3.12809
19264,94.0693,34417.2,3.13344
19280,94.1475,34464.2,3.133939
19296,94.2256,34482.1,3.13705
19312,94.3037,34504.2,3.14082
19328,94.3818,34509.1,3.141706
19344,94.46,34557.6,3.14595
19360,94.5381,34580.4,3.14771
19376,94.6162,34616.6,3.15137
19392,94.6943,34642.7,3.15348
19408,94.7725,34638.2,3.15541
19424,94.8506,34692.2,3.157104
19440,94.9287,34715.7,3.161484
19456,95.0068,34750.7,3.16324
19472,95.085,34763.1,3.16556
19488,95.1631,34801.9,3.1692
19504,95.2412,34819.4,3.17145
19520,95.3193,34848.4,3.1744
19536,95.3975,34865.4,3.17661
19552,95.4756,34887.8,3.17827
19568,95.5537,34922.8,3.18282
19584,95.6318,34944.4,3.18471
19600,95.71,34980.8,3.18698
19616,95.7881,34982.5,3.18896
19632,95.8662,35022.7,3.19278
19648,95.9443,35053,3.19504
19664,96.0225,35074.6,3.19757
19680,96.1006,35095.4,3.19875
19696,96.1787,35127.7,3.20241
19712,96.2568,35153.5,3.2044
19728,96.335,35179.6,3.2073
19744,96.4131,35207.9,3.21025
19760,96.4912,35225.7,3.21248
19776,96.5693,35251.4,3.21532
19792,96.6475,35280.2,3.21784
19808,96.7256,35318.6,3.22122
19824,96.8037,35341.3,3.22374
19840,96.8818,35362.4,3.22674
19856,96.96,35385.3,3.22951
19872,97.0381,35408.9,3.2313
19888,97.1162,35435.3,3.23352
19904,97.1943,35450.5,3.23437
19920,97.2725,35488.2,3.23914
19936,97.3506,35504.9,3.24106
19952,97.4287,35553.4,3.24435
19968,97.5068,35552.9,3.24735
19984,97.585,35595.9,3.24951
20000,97.6631,35605.2,3.25166
20016,97.7412,35644.9,3.25508
20032,97.8193,35673.2,3.257951
20048,97.8975,35697.7,3.25957
20064,97.9756,35728.1,3.263931
20080,98.0537,35732.1,3.26387
20096,98.1318,35772.6,3.26814
20112,98.21,35791.9,3.27028
20128,98.2881,35831.5,3.27255
20144,98.3662,35830,3.27485
20160,98.4443,35882.5,3.27862
20176,98.5225,35913.9,3.28076
20192,98.6006,35933.9,3.28278
20208,98.6787,35950.4,3.28526
20224,98.7568,35949.8,3.28866
20240,98.835,36015.2,3.29037
20256,98.9131,36028.8,3.29324
20272,98.9912,36065.7,3.297847
20288,99.0693,36078.9,3.29851
20304,99.1475,36108.4,3.30224
20320,99.2256,36141.5,3.30442
20336,99.3037,36160.1,3.30687
20352,99.3818,36187.9,3.308593
20368,99.46,36211,3.312
20384,99.5381,36238.6,3.31477
20400,99.6162,36239,3.31588
20416,99.6943,36287.3,3.31956
20432,99.7725,36307.2,3.32089
20448,99.8506,36341.5,3.32391
20464,99.9287,36360.6,3.32851
20480,100.007,36390.9,3.33037
20496,100.085,36418.2,3.33194
20512,100.163,36437,3.33536
20528,100.241,36464.5,3.33801
20544,100.319,36487.8,3.33909
20560,100.397,36525.3,3.34315
20576,100.476,36538.8,3.34521
20592,100.554,36573.3,3.34777
20608,100.632,36594.8,3.35101
20624,100.71,36627.1,3.35335
20640,100.788,36645.9,3.355197
20656,100.866,36675.8,3.35913
20672,100.944,36703.1,3.361582
20688,101.022,36720.2,3.36389
20704,101.101,36759.5,3.367023
20720,101.179,36758.6,3.36896
20736,101.257,36801.6,3.372272
20752,101.335,36817.8,3.37339
20768,101.413,36851.7,3.37612
20784,101.491,36865.2,3.37954
20800,101.569,36884.7,3.38109
20816,101.647,36921,3.38424
20832,101.726,36942.5,3.38802
20848,101.804,36985.2,3.39024
20864,101.882,36988.1,3.3927
20880,101.96,37026.8,3.39531
20896,102.038,37044.4,3.39778
20912,102.116,37081.9,3.40234
20928,102.194,37094.1,3.40264
20944,102.272,37117.9,3.40501
20960,102.351,37110.1,3.40876
20976,102.429,37138.2,3.41171
20992,102.507,37151.8,3.41434
21008,102.585,37178.3,3.41467
21024,102.663,37208.3,3.41792
21040,102.741,37232.2,3.42146
21056,102.819,37266.6,3.42567
21072,102.897,37282.5,3.42636
21088,102.976,37304.9,3.42894
21104,103.054,37337.9,3.43232
21120,103.132,37365.5,3.4355
21136,103.21,37390.6,3.43715
21152,103.288,37400.9,3.43955
21168,103.366,37442.8,3.4427
21184,103.444,37469.1,3.4462
21200,103.522,37499.7,3.44934
21216,103.601,37509,3.44939
21232,103.679,37539.6,3.45204
21248,103.757,37561.5,3.454643
21264,103.835,37588.8,3.45806
21280,103.913,37630.2,3.46153
21296,103.991,37634.4,3.46193
21312,104.069,37666.6,3.46703
21328,104.147,37693,3.46792
21344,104.226,37724.1,3.47245
21360,104.304,37725.2,3.4732
21376,104.382,37770.1,3.47493
21392,104.46,37781.1,3.47837
21408,104.538,37825.7,3.48153
21424,104.616,37852.5,3.485
21440,104.694,37864.6,3.48798
21456,104.772,37890.3,3.48903
21472,104.851,37905.1,3.4915
21488,104.929,37946.1,3.49414
21504,105.007,37963.7,3.49654
21520,105.085,37984.5,3.5014
21536,105.163,38018.6,3.50208
21552,105.241,38046.3,3.504488
21568,105.319,38067.9,3.507575
21584,105.397,38096.9,3.51087
21600,105.476,38121.5,3.51343
21616,105.554,38116.5,3.51508
21632,105.632,38160.6,3.51726
21648,105.71,38180.1,3.52002
21664,105.788,38216,3.524055
21680,105.866,38234.8,3.52502
21696,105.944,38269.4,3.52799
21712,106.022,38284.6,3.53027
21728,106.101,38314.7,3.532922
21744,106.179,38333.3,3.53602
21760,106.257,38356.6,3.53778
21776,106.335,38395.4,3.54184
21792,106.413,38403.2,3.54331
21808,106.491,38445.7,3.54741
21824,106.569,38456.5,3.54864
21840,106.647,38488.2,3.55282
21856,106.726,38508.5,3.55395
21872,106.804,38538.2,3.55816
21888,106.882,38559.6,3.55877
21904,106.96,38591.8,3.56265
21920,107.038,38607.6,3.56547
21936,107.116,38638.3,3.56669
21952,107.194,38663,3.56992
21968,107.272,38669.6,3.57251
21984,107.351,38712.9,3.5743
22000,107.429,38728.9,3.5772
22016,107.507,38760.8,3.57908
22032,107.585,38787.2,3.58243
22048,107.663,38804.1,3.58563
22064,107.741,38831.4,3.58845
22080,107.819,38840.2,3.59022
22096,107.897,38879.8,3.59317
22112,107.976,38890.3,3.59573
22128,108.054,38919,3.59893
22144,108.132,38947.4,3.60112
22160,108.21,38980,3.60475
22176,108.288,38991.4,3.60535
22192,108.366,39020.9,3.60837
22208,108.444,39053.3,3.61188
22224,108.522,39072.7,3.61406
22240,108.601,39100.4,3.61626
22256,108.679,39112.4,3.6195
22272,108.757,39153,3.62266
22288,108.835,39172.3,3.62373
22304,108.913,39205.5,3.62731
22320,108.991,39213.1,3.62802
22336,109.069,39234.8,3.63188
22352,109.147,39270.5,3.63457
22368,109.226,39297.2,3.63574
22384,109.304,39327.6,3.64015
22400,109.382,39336.4,3.64119
22416,109.46,39358.1,3.64461
22432,109.538,39394.8,3.64667
22448,109.616,39423,3.65063
22464,109.694,39437.3,3.65097
22480,109.772,39460.8,3.65603
22496,109.851,39494.5,3.6594
22512,109.929,39512.1,3.66048
22528,110.007,39542.6,3.662617
22544,110.085,39565.5,3.66574
22560,110.163,39589.4,3.66925
22576,110.241,39605.8,3.671783
22592,110.319,39645.9,3.67441
22608,110.397,39653.2,3.67441
22624,110.476,39689.1,3.67825
22640,110.554,39708.5,3.68127
22656,110.632,39747.5,3.68493
22672,110.71,39758.7,3.68714
22688,110.788,39788.7,3.68965
22704,110.866,39818.6,3.69205
22720,110.944,39837.3,3.69452
22736,111.022,39863.3,3.69791
22752,111.101,39881.6,3.69963
22768,111.179,39911.2,3.70199
22784,111.257,39918.6,3.70327
22800,111.335,39962.1,3.70779
22816,111.413,39981.5,3.70969
22832,111.491,40006.5,3.712718
22848,111.569,40038.2,3.71566
22864,111.647,40047.8,3.71731
22880,111.726,40081.8,3.72083
22896,111.804,40100.7,3.72294
22912,111.882,40127.9,3.72595
22928,111.96,40149.4,3.72847
22944,112.038,40179.4,3.73006
22960,112.116,40198.4,3.73298
22976,112.194,40223.7,3.73689
22992,112.272,40252.1,3.73926
23008,112.351,40267.9,3.74269
23024,112.429,40303.2,3.74512
23040,112.507,40315.7,3.74791
23056,112.585,40352.7,3.74939
23072,112.663,40348.9,3.74994
23088,112.741,40402.8,3.7553
23104,112.819,40419,3.75755
23120,112.897,40452.6,3.75949
23136,112.976,40468,3.76204
23152,113.054,40492.3,3.76422
23168,113.132,40518.8,3.76744
23184,113.21,40542.3,3.77139
23200,113.288,40571,3.772845
23216,113.366,40585,3.77511
23232,113.444,40620,3.77849
23248,113.522,40642.5,3.780457
23264,113.601,40666.7,3.78265
23280,113.679,40686.6,3.78581
23296,113.757,40695.6,3.7876
23312,113.835,40734,3.79114
23328,113.913,40752.5,3.79325
23344,113.991,40778,3.7964
23360,114.069,40788,3.79772
23376,114.147,40826.3,3.80148
23392,114.226,40849,3.80286
23408,114.304,40880.7,3.8074
23424,114.382,40898.8,3.80934
23440,114.46,40918.2,3.81138
23456,114.538,40955.7,3.81379
23472,114.616,40971.6,3.81783
23488,114.694,41002.9,3.82039
23504,114.772,41006.1,3.82173
23520,114.851,41041.4,3.82509
23536,114.929,41056.3,3.82623
23552,115.007,41093.9,3.83129
23568,115.085,41108.2,3.83058
23584,115.163,41140.9,3.83531
23600,115.241,41166.5,3.83742
23616,115.319,41188,3.8405
23632,115.397,41218.5,3.84285
23648,115.476,41210.7,3.84583
23664,115.554,41254,3.84873
23680,115.632,41276.4,3.84895
23696,115.71,41306.6,3.85363
23712,115.788,41325.5,3.85536
23728,115.866,41358.5,3.858753
23744,115.944,41368.7,3.86106
23760,116.022,41400.2,3.8638
23776,116.101,41429.3,3.86588
23780,116.12,4729.26,3.93897