File: ASM109_2021_data/MTS/Quasi/MTS_quasi_5.csv
,Time [s],Load [N],Displacement [mm]
0,0.0078125,-216.879,0.000116676
16,0.0859375,-191.711,0.000548959
32,0.1640625,-124.224,0.00493661
48,0.2421875,-136.77,0.004722476
64,0.3203125,-61.6704,0.0100163
80,0.3984375,-43.0835,0.0111772
96,0.4765625,-6.9844,0.0144678
112,0.5546875,12.2091,0.0164053
128,0.6328125,11.1158,0.0186887
144,0.7109375,79.821,0.0229727
160,0.7890625,110.326,0.0244148
176,0.8671875,153.735,0.0278181
192,0.9453125,151.218,0.0283107
208,1.02344,223.331,0.0329483
224,1.10156,232.166,0.0335862
240,1.17969,284.925,0.0380118
256,1.25781,274.567,0.03918618
272,1.33594,334.772,0.0430816
288,1.41406,376.701,0.0450124
304,1.49219,408.056,0.0472346
320,1.57031,449.396,0.0509414
336,1.64844,444.469,0.0525025
352,1.72656,512.629,0.0556187
368,1.80469,536.049,0.0576371
384,1.88281,584.295,0.0616957
400,1.96094,594.771,0.0612549
416,2.03906,629.009,0.06570071
432,2.11719,676.039,0.0688528
448,2.19531,698.494,0.0729194
464,2.27344,740.413,0.0757706
480,2.35156,736.683,0.0748269
496,2.42969,797.8,0.07938
512,2.50781,825.565,0.0816219
528,2.58594,875.859,0.0858544
544,2.66406,862.673,0.0839929
560,2.74219,927.056,0.0892858
576,2.82031,965.774,0.0927083
592,2.89844,998.737,0.0946216
608,2.97656,1032.44,0.09773612
624,3.05469,1026.94,0.09956494
640,3.13281,1075.64,0.101599
656,3.21094,1105.74,0.105329
672,3.28906,1154.12,0.107929
688,3.36719,1163.63,0.107056
704,3.44531,1216.86,0.112177
720,3.52344,1246.43,0.115722
736,3.60156,1282.85,0.118136
752,3.67969,1322.47,0.1206547
768,3.75781,1301.65,0.123131
784,3.83594,1371.1,0.127461
800,3.91406,1394.37,0.128025
816,3.99219,1451.27,0.130709
832,4.07031,1435.29,0.132521
848,4.14844,1512.27,0.134844
864,4.22656,1518.61,0.140284
880,4.30469,1571.8,0.1419425
896,4.38281,1600.73,0.144121
912,4.46094,1640.98,0.145421
928,4.53906,1655.36,0.148818
944,4.61719,1680.35,0.153419
960,4.69531,1737.82,0.15496
976,4.77344,1760.98,0.156814
992,4.85156,1809.91,0.159259
1008,4.92969,1799.19,0.160454
1024,5.00781,1872.22,0.164985
1040,5.08594,1890.39,0.167797
1056,5.16406,1930.34,0.1696904
1072,5.24219,1952.79,0.170999
1088,5.32031,1976.74,0.174742
1104,5.39844,2012.85,0.178298
1120,5.47656,2036.58,0.178571
1136,5.55469,2096.72,0.182883
1152,5.63281,2099.6,0.183794
1168,5.71094,2153.85,0.188916
1184,5.78906,2171.29,0.189147
1200,5.86719,2224.99,0.194472
1216,5.94531,2237.94,0.194459
1232,6.02344,2270.53,0.198283
1248,6.10156,2311.11,0.201635
1264,6.17969,2340.17,0.204423
1280,6.25781,2379.53,0.207174
1296,6.33594,2389.05,0.207642
1312,6.41406,2445.51,0.211997
1328,6.49219,2465.61,0.213737
1344,6.57031,2498.92,0.216143
1360,6.64844,2520.68,0.217014
1376,6.72656,2545.06,0.221486
1392,6.80469,2600.83,0.224635
1408,6.88281,2610.67,0.226483
1424,6.96094,2668.17,0.2306
1440,7.03906,2652.57,0.230786
1456,7.11719,2727.9,0.2344662
1472,7.19531,2749.39,0.237223
1488,7.27344,2797.2,0.24026
1504,7.35156,2817.28,0.242611
1520,7.42969,2826.73,0.245837
1536,7.50781,2889.19,0.248461
1552,7.58594,2909.62,0.249609
1568,7.66406,2953.19,0.253249
1584,7.74219,2950.37,0.255358
1600,7.82031,3011.54,0.257978
1616,7.89844,3039.87,0.26035
1632,7.97656,3080.34,0.263105
1648,8.05469,3081.8,0.264232
1664,8.13281,3129.34,0.2687569
1680,8.21094,3166.16,0.272073
1696,8.28906,3210.24,0.275251
1712,8.36719,3244.53,0.276515
1728,8.44531,3204.98,0.277848
1744,8.52344,3295.3,0.282059
1760,8.60156,3307.43,0.283774
1776,8.67969,3372.4,0.287825
1792,8.75781,3365.23,0.287499
1808,8.83594,3413.71,0.292078
1824,8.91406,3450.16,0.294946
1840,8.99219,3489.87,0.298055
1856,9.07031,3521.91,0.299961
1872,9.14844,3505.1,0.30239
1888,9.22656,3575.03,0.304006
1904,9.30469,3606.21,0.305598
1920,9.38281,3655.76,0.3113611
1936,9.46094,3660.14,0.31312
1952,9.53906,3694.69,0.315226
1968,9.61719,3741.69,0.318308
1984,9.69531,3774.35,0.31914
2000,9.77344,3806.64,0.322661
2016,9.85156,3806.74,0.325544
2032,9.92969,3872.28,0.32777
2048,10.0078,3883.1,0.331198
2064,10.0859,3926.95,0.335447
2080,10.1641,3938.33,0.335037
2096,10.2422,3990.45,0.339497
2112,10.3203,4010.49,0.339101
2128,10.3984,4037.84,0.344643
2144,10.4766,4086.06,0.346596
2160,10.5547,4090.25,0.348706
2176,10.6328,4138.25,0.351693
2192,10.7109,4164.47,0.3535755
2208,10.7891,4225.88,0.356411
2224,10.8672,4212.98,0.357377
2240,10.9453,4281.27,0.363594
2256,11.0234,4278.46,0.365202
2272,11.1016,4344,0.368329
2288,11.1797,4374.69,0.370207
2304,11.2578,4396.01,0.372155
2320,11.3359,4433.43,0.376291
2336,11.4141,4449.05,0.378035
2352,11.4922,4503.15,0.381912
2368,11.5703,4521.43,0.382918
2384,11.6484,4566.78,0.385912
2400,11.7266,4571.51,0.387017
2416,11.8047,4619.28,0.393017
2432,11.8828,4660.69,0.393616
2448,11.9609,4695.54,0.396479
2464,12.0391,4721.22,0.3994824
2480,12.1172,4723.86,0.400827
2496,12.1953,4796.1,0.405241
2512,12.2734,4811.7,0.405815
2528,12.3516,4840.68,0.408477
2544,12.4297,4852.76,0.410918
2560,12.5078,4912.25,0.415849
2576,12.5859,4941.15,0.416426
2592,12.6641,4966.52,0.418833
2608,12.7422,5000.3,0.42102
2624,12.8203,5024.72,0.426537
2640,12.8984,5067.59,0.428291
2656,12.9766,5093.83,0.429911
2672,13.0547,5134.94,0.433306
2688,13.1328,5136.57,0.434603
2704,13.2109,5193.76,0.439642
2720,13.2891,5223.43,0.4394795
2736,13.3672,5265.27,0.442837
2752,13.4453,5271.2,0.444655
2768,13.5234,5301.25,0.447939
2784,13.6016,5334.79,0.451735
2800,13.6797,5374.92,0.45381
2816,13.7578,5406.44,0.456104
2832,13.8359,5422.98,0.457663
2848,13.9141,5472.17,0.460968
2864,13.9922,5491.07,0.464895
2880,14.0703,5543.44,0.466028
2896,14.1484,5560.29,0.468929
2912,14.2266,5586.92,0.471982
2928,14.3047,5626.25,0.474745
2944,14.3828,5659,0.4780148
2960,14.4609,5687.97,0.479836
2976,14.5391,5682.36,0.481713
2992,14.6172,5756.84,0.484751
3008,14.6953,5772.87,0.486637
3024,14.7734,5815.56,0.489829
3040,14.8516,5830.25,0.490361
3056,14.9297,5852.92,0.494603
3072,15.0078,5900.95,0.497607
3088,15.0859,5937.31,0.50029
3104,15.1641,5970.94,0.503857
3120,15.2422,5968.89,0.504796
3136,15.3203,6039.12,0.507832
3152,15.3984,6041.08,0.509477
3168,15.4766,6089.41,0.514942
3184,15.5547,6112.79,0.515668
3200,15.6328,6150.28,0.519098
3216,15.7109,6183.03,0.520537
3232,15.7891,6211.21,0.523864
3248,15.8672,6255.8,0.527055
3264,15.9453,6234.39,0.528483
3280,16.0234,6295.73,0.53167
3296,16.1016,6318.9,0.532735
3312,16.1797,6381.54,0.537986
3328,16.2578,6355.8,0.538273
3344,16.3359,6424.87,0.542191
3360,16.4141,6457.22,0.544697
3376,16.4922,6491.94,0.54738
3392,16.5703,6530.87,0.5503602
3408,16.6484,6544.09,0.551455
3424,16.7266,6588.99,0.55452
3440,16.8047,6615.48,0.558054
3456,16.8828,6646.92,0.559971
3472,16.9609,6648.8,0.561183
3488,17.0391,6714.39,0.563992
3504,17.1172,6730.75,0.566794
3520,17.1953,6789.88,0.571156
3536,17.2734,6780.39,0.571107
3552,17.3516,6815.5,0.575889
3568,17.4297,6862.86,0.577429
3584,17.5078,6888.72,0.580271
3600,17.5859,6934.47,0.58404
3616,17.6641,6907.84,0.584679
3632,17.7422,6998.03,0.589383
3648,17.8203,7001.3,0.590752
3664,17.8984,7065.86,0.593515
3680,17.9766,7082.59,0.5974071
3696,18.0547,7115.2,0.59992
3712,18.1328,7132.99,0.600867
3728,18.2109,7173.05,0.604093
3744,18.2891,7211.08,0.607018
3760,18.3672,7206.29,0.608229
3776,18.4453,7272.33,0.612238
3792,18.5234,7291.07,0.612446
3808,18.6016,7332.79,0.618814
3824,18.6797,7347.59,0.617238
3840,18.7578,7393.26,0.6224947
3856,18.8359,7423.67,0.624915
3872,18.9141,7458.6,0.62907
3888,18.9922,7485.82,0.631142
3904,19.0703,7498.85,0.632753
3920,19.1484,7551.87,0.636494
3936,19.2266,7538.06,0.638415
3952,19.3047,7611.78,0.641326
3968,19.3828,7646.71,0.642949
3984,19.4609,7673.05,0.645776
4000,19.5391,7701.66,0.648829
4016,19.6172,7707.85,0.6508
4032,19.6953,7765.48,0.654044
4048,19.7734,7779.5,0.655569
4064,19.8516,7819.46,0.658146
4080,19.9297,7824.44,0.661433
4096,20.0078,7904.66,0.666181
4112,20.0859,7897.77,0.665448
4128,20.1641,7956.05,0.668458
4144,20.2422,7942.88,0.671129
4160,20.3203,7993.52,0.673715
4176,20.3984,8038.4,0.678843
4192,20.4766,8057.64,0.6802417
4208,20.5547,8104.04,0.6839
4224,20.6328,8103.12,0.684137
4240,20.7109,8174.87,0.688528
4256,20.7891,8168.92,0.689189
4272,20.8672,8210.85,0.694386
4288,20.9453,8243.64,0.695081
4304,21.0234,8266.27,0.699566
4320,21.1016,8316.1,0.7008009
4336,21.1797,8339.21,0.703144
4352,21.2578,8377.05,0.706016
4368,21.3359,8355.69,0.707724
4384,21.4141,8426.3,0.711743
4400,21.4922,8450.16,0.71383
4416,21.5703,8500.8,0.716603
4432,21.6484,8462.36,0.716123
4448,21.7266,8547.95,0.721825
4464,21.8047,8578.33,0.724687
4480,21.8828,8609.18,0.727064
4496,21.9609,8649.26,0.730893
4512,22.0391,8653.41,0.7318716
4528,22.1172,8716.3,0.735257
4544,22.1953,8729.82,0.735645
4560,22.2734,8782.06,0.740395
4576,22.3516,8764.8,0.742819
4592,22.4297,8825.27,0.745163
4608,22.5078,8863.79,0.748464
4624,22.5859,8884.16,0.750118
4640,22.6641,8923.1,0.754773
4656,22.7422,8933.5,0.752844
4672,22.8203,8963.63,0.757867
4688,22.8984,8993.29,0.759883
4704,22.9766,9050.74,0.764638
4720,23.0547,9039.34,0.765008
4736,23.1328,9101.05,0.769587
4752,23.2109,9131.18,0.7712419
4768,23.2891,9165.22,0.774419
4784,23.3672,9191.42,0.776422
4800,23.4453,9216.44,0.778764
4816,23.5234,9246.12,0.78142
4832,23.6016,9268.82,0.784704
4848,23.6797,9323.52,0.786495
4864,23.7578,9287.31,0.789489
4880,23.8359,9375.03,0.791623
4896,23.9141,9393.84,0.792639
4912,23.9922,9442.76,0.797494
4928,24.0703,9467.01,0.801126
4944,24.1484,9471.78,0.802204
4960,24.2266,9519.21,0.805385
4976,24.3047,9533.79,0.808102
4992,24.3828,9593.77,0.811439
5008,24.4609,9583.5,0.8120929
5024,24.5391,9642.8,0.815078
5040,24.6172,9670.1,0.817397
5056,24.6953,9708.77,0.820895
5072,24.7734,9721.14,0.820932
5088,24.8516,9757.19,0.823885
5104,24.9297,9788.86,0.82781
5120,25.0078,9823.76,0.830928
5136,25.0859,9863.01,0.833948
5152,25.1641,9870.13,0.836992
5168,25.2422,9911.56,0.839421
5184,25.3203,9921.08,0.840277
5200,25.3984,9982.6,0.845479
5216,25.4766,10008.6,0.845972
5232,25.5547,10035.3,0.848741
5248,25.6328,10046.5,0.85123
5264,25.7109,10081.2,0.856606
5280,25.7891,10124.5,0.858978
5296,25.8672,10146.3,0.858253
5312,25.9453,10176.2,0.861479
5328,26.0234,10192.8,0.865082
5344,26.1016,10231.9,0.868005
5360,26.1797,10274.8,0.871756
5376,26.2578,10306.8,0.873709
5392,26.3359,10324.7,0.874993
5408,26.4141,10348.1,0.878047
5424,26.4922,10392.3,0.880472
5440,26.5703,10412.9,0.882606
5456,26.6484,10453.3,0.886909
5472,26.7266,10456.7,0.88842
5488,26.8047,10512.3,0.89275
5504,26.8828,10539.9,0.89443
5520,26.9609,10581.2,0.897463
5536,27.0391,10591.7,0.89703
5552,27.1172,10623.5,0.901687
5568,27.1953,10660.8,0.904863
5584,27.2734,10694,0.905744
5600,27.3516,10717.8,0.909518
5616,27.4297,10730.3,0.911351
5632,27.5078,10789.5,0.915469
5648,27.5859,10805.1,0.916921
5664,27.6641,10838.3,0.920781
5680,27.7422,10847.1,0.921526
5696,27.8203,10899.4,0.925768
5712,27.8984,10933.7,0.927437
5728,27.9766,10959.2,0.930377
5744,28.0547,10995,0.933242
5760,28.1328,11007.1,0.934715
5776,28.2109,11045.6,0.936875
5792,28.2891,11071.4,0.9398483
5808,28.3672,11122.8,0.943941
5824,28.4453,11128.1,0.944725
5840,28.5234,11179.1,0.948898
5856,28.6016,11205.9,0.951543
5872,28.6797,11235,0.952991
5888,28.7578,11258.7,0.954299
5904,28.8359,11263.3,0.957478
5920,28.9141,11320.3,0.962044
5936,28.9922,11339,0.9629072
5952,29.0703,11386.6,0.966567
5968,29.1484,11352.1,0.968026
5984,29.2266,11425.3,0.972867
6000,29.3047,11460.4,0.972726
6016,29.3828,11505.1,0.977195
6032,29.4609,11529.8,0.97967
6048,29.5391,11530.8,0.982377
6064,29.6172,11597.3,0.983828
6080,29.6953,11622.2,0.987369
6096,29.7734,11651.2,0.990101
6112,29.8516,11668.5,0.990834
6128,29.9297,11704,0.994927
6144,30.0078,11737.5,0.9984957
6160,30.0859,11777.8,1.00011
6176,30.1641,11793.1,1.00194
6192,30.2422,11808.5,1.00509
6208,30.3203,11854.9,1.00936
6224,30.3984,11883,1.0115
6240,30.4766,11924.8,1.01394
6256,30.5547,11905.5,1.01589
6272,30.6328,11967.9,1.01885
6288,30.7109,12002.2,1.02138
6304,30.7891,12044.8,1.02474
6320,30.8672,12037.6,1.0247
6336,30.9453,12083.4,1.02942
6352,31.0234,12122.2,1.03071
6368,31.1016,12140,1.03406
6384,31.1797,12191,1.0371
6400,31.2578,12165.6,1.038136
6416,31.3359,12225.7,1.04216
6432,31.4141,12248.5,1.04432
6448,31.4922,12308.8,1.04737
6464,31.5703,12308.8,1.04858
6480,31.6484,12352.4,1.05231
6496,31.7266,12380,1.05313
6512,31.8047,12410,1.05757
6528,31.8828,12446.5,1.0598
6544,31.9609,12464.1,1.06166
6560,32.0391,12510.9,1.06679
6576,32.1172,12504.3,1.06795
6592,32.1953,12572.7,1.0695
6608,32.2734,12567.1,1.07223
6624,32.3516,12617.2,1.07515
6640,32.4297,12651.4,1.07625
6656,32.5078,12666.6,1.08022
6672,32.5859,12716.5,1.08368
6688,32.6641,12733.5,1.08518
6704,32.7422,12759.1,1.08783
6720,32.8203,12788.2,1.09108
6736,32.8984,12840.5,1.09414
6752,32.9766,12845.5,1.09526
6768,33.0547,12890.5,1.09832
6784,33.1328,12918.6,1.10064
6800,33.2109,12936.4,1.1044
6816,33.2891,12974.4,1.10827
6832,33.3672,12995.2,1.11049
6848,33.4453,13035.6,1.11279
6864,33.5234,13022.3,1.11349
6880,33.6016,13101.3,1.11835
6896,33.6797,13112,1.11975
6912,33.7578,13157,1.12323
6928,33.8359,13157,1.124487
6944,33.9141,13201.1,1.12754
6960,33.9922,13244,1.13019
6976,34.0703,13264.7,1.132809
6992,34.1484,13302.4,1.13497
7008,34.2266,13315.2,1.1376
7024,34.3047,13363.1,1.14159
7040,34.3828,13377.9,1.143
7056,34.4609,13422.2,1.14592
7072,34.5391,13383.1,1.14676
7088,34.6172,13464.2,1.15236
7104,34.6953,13512.2,1.15446
7120,34.7734,13537.7,1.15609
7136,34.8516,13565,1.15755
7152,34.9297,13545.7,1.16094
7168,35.0078,13634.5,1.16539
7184,35.0859,13645.5,1.16572
7200,35.1641,13693.7,1.17046
7216,35.2422,13697.5,1.16981
7232,35.3203,13732.1,1.17401
7248,35.3984,13763.2,1.177
7264,35.4766,13804,1.18121
7280,35.5547,13833,1.18306
7296,35.6328,13823,1.18506
7312,35.7109,13889.3,1.18794
7328,35.7891,13912.8,1.19061
7344,35.8672,13953.8,1.19296
7360,35.9453,13928,1.19405
7376,36.0234,13988.3,1.19789
7392,36.1016,14034.3,1.20048
7408,36.1797,14064.8,1.20312
7424,36.2578,14085,1.2052
7440,36.3359,14096.8,1.20709
7456,36.4141,14153.2,1.20986
7472,36.4922,14176.8,1.21291
7488,36.5703,14210.4,1.21658
7504,36.6484,14197.5,1.21719
7520,36.7266,14263.3,1.22201
7536,36.8047,14284.5,1.2218
7552,36.8828,14335.9,1.227939
7568,36.9609,14353.3,1.228901
7584,37.0391,14339,1.23183
7600,37.1172,14408.7,1.23352
7616,37.1953,14438.1,1.23578
7632,37.2734,14474.9,1.2399
7648,37.3516,14456.2,1.24155
7664,37.4297,14532.9,1.24485
7680,37.5078,14546.1,1.24723
7696,37.5859,14597.2,1.25056
7712,37.6641,14608.1,1.2507
7728,37.7422,14636.6,1.25481
7744,37.8203,14665.1,1.25849
7760,37.8984,14701.7,1.26195
7776,37.9766,14751.9,1.26407
7792,38.0547,14753.8,1.26499
7808,38.1328,14795.5,1.26756
7824,38.2109,14811,1.27123
7840,38.2891,14867.9,1.27458
7856,38.3672,14892,1.27748
7872,38.4453,14903.4,1.27983
7888,38.5234,14929.9,1.28155
7904,38.6016,14971.7,1.28517
7920,38.6797,15010.8,1.28822
7936,38.7578,15011.8,1.28882
7952,38.8359,15058.9,1.291814
7968,38.9141,15075.1,1.29551
7984,38.9922,15127,1.29742
8000,39.0703,15138.1,1.30015
8016,39.1484,15170.9,1.30169
8032,39.2266,15194.9,1.304719
8048,39.3047,15227.9,1.30864
8064,39.3828,15257,1.31019
8080,39.4609,15264.1,1.31167
8096,39.5391,15315.1,1.31543
8112,39.6172,15326.2,1.31779
8128,39.6953,15391.1,1.32173
8144,39.7734,15394.3,1.32165
8160,39.8516,15438.7,1.32734
8176,39.9297,15466.6,1.32768
8192,40.0078,15486.6,1.33189
8208,40.0859,15521.8,1.333323
8224,40.1641,15530.6,1.33569
8240,40.2422,15578.2,1.33912
8256,40.3203,15600.7,1.34167
8272,40.3984,15661.3,1.3467
8288,40.4766,15634.4,1.346169
8304,40.5547,15715.9,1.3496
8320,40.6328,15716.8,1.35074
8336,40.7109,15752.1,1.35485
8352,40.7891,15793.8,1.35578
8368,40.8672,15819.5,1.35994
8384,40.9453,15848.8,1.36188
8400,41.0234,15851.8,1.36305
8416,41.1016,15908.7,1.36811
8432,41.1797,15897.8,1.36959
8448,41.2578,15966.9,1.37443
8464,41.3359,15963,1.37507
8480,41.4141,16018.6,1.37927
8496,41.4922,16040.6,1.38085
8512,41.5703,16064,1.38339
8528,41.6484,16092,1.38622
8544,41.7266,16111.5,1.3873
8560,41.8047,16166.9,1.39118
8576,41.8828,16186.7,1.3931
8592,41.9609,16227.7,1.39689
8608,42.0391,16213.4,1.39806
8624,42.1172,16275.6,1.40164
8640,42.1953,16310.3,1.40335
8656,42.2734,16336.9,1.40647
8672,42.3516,16367.4,1.41009
8688,42.4297,16353.4,1.41214
8704,42.5078,16433.7,1.41512
8720,42.5859,16435.5,1.4159
8736,42.6641,16491.5,1.41961
8752,42.7422,16458.7,1.420957
8768,42.8203,16539.3,1.42556
8784,42.8984,16565.7,1.426283
8800,42.9766,16584.6,1.43122
8816,43.0547,16625.6,1.43262
8832,43.1328,16629.4,1.43413
8848,43.2109,16680,1.43928
8864,43.2891,16708.1,1.44083
8880,43.3672,16738.6,1.44292
8896,43.4453,16757.3,1.44529
8912,43.5234,16795.6,1.44921
8928,43.6016,16816.2,1.449899
8944,43.6797,16861.3,1.45455
8960,43.7578,16885.5,1.45602
8976,43.8359,16900.4,1.45729
8992,43.9141,16940.8,1.45997
9008,43.9922,16967.3,1.46459
9024,44.0703,17007.1,1.46623
9040,44.1484,16999.9,1.46732
9056,44.2266,17051.6,1.47104
9072,44.3047,17072.9,1.47384
9088,44.3828,17111.5,1.47574
9104,44.4609,17123,1.47777
9120,44.5391,17138.9,1.48009
9136,44.6172,17191,1.484241
9152,44.6953,17212.2,1.48693
9168,44.7734,17257.6,1.4902
9184,44.8516,17240,1.49216
9200,44.9297,17304.3,1.49554
9216,45.0078,17331,1.49654
9232,45.0859,17379.4,1.50075
9248,45.1641,17401.9,1.50267
9264,45.2422,17419.8,1.50431
9280,45.3203,17455.3,1.50712
9296,45.3984,17481.4,1.5119
9312,45.4766,17515.8,1.51383
9328,45.5547,17501.1,1.51479
9344,45.6328,17572.2,1.51832
9360,45.7109,17578.5,1.51999
9376,45.7891,17634.1,1.52424
9392,45.8672,17644.3,1.52544
9408,45.9453,17686.5,1.5286
9424,46.0234,17704,1.53207
9440,46.1016,17746.8,1.53446
9456,46.1797,17775.1,1.53579
9472,46.2578,17806.8,1.54053
9488,46.3359,17828.5,1.54042
9504,46.4141,17843,1.54453
9520,46.4922,17894.8,1.54702
9536,46.5703,17907.6,1.55071
9552,46.6484,17942.5,1.552776
9568,46.7266,17952,1.5536
9584,46.8047,17994.1,1.557814
9600,46.8828,18032.9,1.55991
9616,46.9609,18035.2,1.56174
9632,47.0391,18078.7,1.56375
9648,47.1172,18091.8,1.56698
9664,47.1953,18133,1.57007
9680,47.2734,18165.1,1.57216
9696,47.3516,18206.4,1.57607
9712,47.4297,18192.7,1.57581
9728,47.5078,18255.2,1.581
9744,47.5859,18290,1.58499
9760,47.6641,18322.4,1.5857
9776,47.7422,18340.7,1.58848
9792,47.8203,18336.8,1.59007
9808,47.8984,18408.1,1.59487
9824,47.9766,18417.2,1.59633
9840,48.0547,18459.5,1.59907
9856,48.1328,18470.9,1.59945
9872,48.2109,18515.5,1.60456
9888,48.2891,18548.8,1.60677
9904,48.3672,18578.1,1.60953
9920,48.4453,18600.7,1.61169
9936,48.5234,18625.2,1.61513
9952,48.6016,18666.8,1.61729
9968,48.6797,18682,1.61917
9984,48.7578,18720.6,1.62163
10000,48.8359,18716.2,1.62448
10016,48.9141,18780,1.62755
10032,48.9922,18800.3,1.62919
10048,49.0703,18836.8,1.63412
10064,49.1484,18866.8,1.635245
10080,49.2266,18871.9,1.63775
10096,49.3047,18918.5,1.6414
10112,49.3828,18947,1.64226
10128,49.4609,18978.8,1.64531
10144,49.5391,18980.3,1.64728
10160,49.6172,19028.6,1.65093
10176,49.6953,19057.1,1.65256
10192,49.7734,19088.9,1.65621
10208,49.8516,19106.6,1.65911
10224,49.9297,19132.1,1.66103
10240,50.0078,19175.3,1.66417
10256,50.0859,19192.9,1.66579
10272,50.1641,19235.7,1.66959
10288,50.2422,19224.3,1.67187
10304,50.3203,19291,1.67415
10320,50.3984,19302.3,1.67586
10336,50.4766,19349.5,1.68127
10352,50.5547,19346.5,1.68112
10368,50.6328,19379.6,1.68472
10384,50.7109,19424.3,1.688435
10400,50.7891,19442.2,1.68909
10416,50.8672,19490.4,1.69316
10432,50.9453,19487.5,1.6927
10448,51.0234,19534.1,1.69852
10464,51.1016,19560.7,1.70052
10480,51.1797,19600.5,1.70253
10496,51.2578,19612.3,1.70522
10512,51.3359,19640,1.70822
10528,51.4141,19679.1,1.710632
10544,51.4922,19701,1.71331
10560,51.5703,19740.8,1.71723
10576,51.6484,19746.1,1.71847
10592,51.7266,19789.7,1.72267
10608,51.8047,19788.7,1.72404
10624,51.8828,19861.3,1.72749
10640,51.9609,19860.8,1.72791
10656,52.0391,19902,1.73162
10672,52.1172,19921,1.73271
10688,52.1953,19963.6,1.73757
10704,52.2734,19994.1,1.73947
10720,52.3516,19988.3,1.74066
10736,52.4297,20030.8,1.74523
10752,52.5078,20056.6,1.74754
10768,52.5859,20115.2,1.75139
10784,52.6641,20119.9,1.75264
10800,52.7422,20169.5,1.755078
10816,52.8203,20179.2,1.7571
10832,52.8984,20218.5,1.76146
10848,52.9766,20249.6,1.76306
10864,53.0547,20263.3,1.76489
10880,53.1328,20297.3,1.76777
10896,53.2109,20322.3,1.77062
10912,53.2891,20370.7,1.77491
10928,53.3672,20369.2,1.77384
10944,53.4453,20394.6,1.777959
10960,53.5234,20448.5,1.78073
10976,53.6016,20464.2,1.78424
10992,53.6797,20503,1.78697
11008,53.7578,20512.7,1.78804
11024,53.8359,20560,1.79254
11040,53.9141,20564,1.79434
11056,53.9922,20614,1.79744
11072,54.0703,20641.5,1.799364
11088,54.1484,20677,1.80159
11104,54.2266,20683.1,1.8031
11120,54.3047,20726.9,1.80894
11136,54.3828,20748.9,1.80892
11152,54.4609,20782.6,1.81329
11168,54.5391,20806.8,1.81511
11184,54.6172,20841.9,1.81709
11200,54.6953,20874.4,1.8214
11216,54.7734,20904,1.82309
11232,54.8516,20927.1,1.82623
11248,54.9297,20905.4,1.82726
11264,55.0078,20989.2,1.83299
11280,55.0859,20998,1.83337
11296,55.1641,21036.9,1.83741
11312,55.2422,21049.2,1.8369
11328,55.3203,21071.9,1.84151
11344,55.3984,21113.4,1.8433
11360,55.4766,21148.2,1.84594
11376,55.5547,21177.6,1.84982
11392,55.6328,21188,1.85134
11408,55.7109,21241.6,1.85432
11424,55.7891,21263.4,1.85613
11440,55.8672,21284.9,1.86079
11456,55.9453,21310.7,1.86157
11472,56.0234,21341.4,1.86479
11488,56.1016,21390.7,1.86924
11504,56.1797,21409.3,1.87006
11520,56.2578,21430.3,1.87298
11536,56.3359,21414.5,1.87365
11552,56.4141,21491.9,1.87919
11568,56.4922,21501.3,1.87959
11584,56.5703,21551.1,1.88287
11600,56.6484,21561.6,1.88468
11616,56.7266,21601.3,1.88997
11632,56.8047,21625.8,1.892298
11648,56.8828,21651.4,1.89341
11664,56.9609,21687.5,1.89594
11680,57.0391,21694.2,1.89675
11696,57.1172,21731.7,1.90144
11712,57.1953,21753.4,1.90292
11728,57.2734,21797.7,1.90726
11744,57.3516,21820.7,1.9093
11760,57.4297,21832,1.9112
11776,57.5078,21876.4,1.91358
11792,57.5859,21902.1,1.91596
11808,57.6641,21937.4,1.9192
11824,57.7422,21951.8,1.92151
11840,57.8203,21999.5,1.92432
11856,57.8984,22013.5,1.92649
11872,57.9766,22053.6,1.93006
11888,58.0547,22073.4,1.93322
11904,58.1328,22099.2,1.934204
11920,58.2109,22125.3,1.93714
11936,58.2891,22157.4,1.94082
11952,58.3672,22192.2,1.94351
11968,58.4453,22201.2,1.94518
11984,58.5234,22239.9,1.94813
12000,58.6016,22251,1.95089
12016,58.6797,22309.7,1.95385
12032,58.7578,22319.4,1.95589
12048,58.8359,22355.2,1.95921
12064,58.9141,22380.1,1.96055
12080,58.9922,22407.5,1.96441
12096,59.0703,22446,1.96601
12112,59.1484,22443,1.96887
12128,59.2266,22500.6,1.97232
12144,59.3047,22519.9,1.97426
12160,59.3828,22553.9,1.97769
12176,59.4609,22535.6,1.97813
12192,59.5391,22612,1.98283
12208,59.6172,22640.1,1.98582
12224,59.6953,22687,1.98859
12240,59.7734,22715.1,1.99158
12256,59.8516,22717.2,1.99224
12272,59.9297,22750.5,1.99659
12288,60.0078,22777.3,1.99855
12304,60.0859,22818.2,2.00129
12320,60.1641,22817.6,2.00374
12336,60.2422,22868.8,2.00665
12352,60.3203,22891.1,2.00996
12368,60.3984,22932.4,2.0132
12384,60.4766,22958.9,2.01471
12400,60.5547,22970.6,2.01601
12416,60.6328,23001,2.01898
12432,60.7109,23023.1,2.02326
12448,60.7891,23072.7,2.02532
12464,60.8672,23072.1,2.025593
12480,60.9453,23117.5,2.029882
12496,61.0234,23126.9,2.03303
12512,61.1016,23172.7,2.03679
12528,61.1797,23204.5,2.03912
12544,61.2578,23209.6,2.03985
12560,61.3359,23248.9,2.04331
12576,61.4141,23283,2.04535
12592,61.4922,23309.6,2.04866
12608,61.5703,23333.4,2.05093
12624,61.6484,23373.6,2.05362
12640,61.7266,23348.6,2.05547
12656,61.8047,23414.8,2.05916
12672,61.8828,23447.5,2.06054
12688,61.9609,23473.7,2.06332
12704,62.0391,23481.8,2.06503
12720,62.1172,23509.4,2.06888
12736,62.1953,23551.7,2.070066
12752,62.2734,23576.6,2.07333
12768,62.3516,23613.3,2.076582
12784,62.4297,23614.4,2.07892
12800,62.5078,23670.1,2.08273
12816,62.5859,23688.8,2.08547
12832,62.6641,23714,2.08712
12848,62.7422,23717,2.08895
12864,62.8203,23758.9,2.093291
12880,62.8984,23802,2.09295
12896,62.9766,23809.5,2.097115
12912,63.0547,23842.7,2.09859
12928,63.1328,23847.2,2.10119
12944,63.2109,23918.6,2.10579
12960,63.2891,23928.1,2.106636
12976,63.3672,23974.2,2.111136
12992,63.4453,23993.8,2.11218
13008,63.5234,24000.2,2.1156
13024,63.6016,24049.5,2.11794
13040,63.6797,24073.5,2.12079
13056,63.7578,24095.9,2.12422
13072,63.8359,24112.3,2.124984
13088,63.9141,24151.8,2.12856
13104,63.9922,24170.2,2.12872
13120,64.0703,24217.1,2.13369
13136,64.1484,24206.4,2.13561
13152,64.2266,24264.4,2.13893
13168,64.3047,24279.9,2.13913
13184,64.3828,24320.6,2.1439
13200,64.4609,24339.1,2.14601
13216,64.5391,24345.9,2.14811
13232,64.6172,24400.1,2.151638
13248,64.6953,24383.8,2.1544
13264,64.7734,24454.7,2.15604
13280,64.8516,24479.5,2.15969
13296,64.9297,24507.5,2.16178
13312,65.0078,24543.8,2.16419
13328,65.0859,24564.3,2.16728
13344,65.1641,24590.5,2.16969
13360,65.2422,24584.7,2.17219
13376,65.3203,24640.8,2.17509
13392,65.3984,24655.2,2.17677
13408,65.4766,24707.5,2.18148
13424,65.5547,24718,2.18142
13440,65.6328,24739.8,2.1845
13456,65.7109,24759.6,2.18751
13472,65.7891,24805.9,2.19146
13488,65.8672,24841.7,2.19261
13504,65.9453,24853.7,2.19551
13520,66.0234,24883.2,2.19735
13536,66.1016,24905.5,2.20095
13552,66.1797,24957.8,2.20475
13568,66.2578,24938.7,2.20516
13584,66.3359,25006.6,2.21018
13600,66.4141,25020.9,2.21134
13616,66.4922,25055.3,2.21407
13632,66.5703,25073.6,2.21713
13648,66.6484,25099.2,2.22002
13664,66.7266,25122.7,2.22192
13680,66.8047,25166.4,2.2252
13696,66.8828,25199.7,2.22709
13712,66.9609,25171.3,2.22943
13728,67.0391,25235.7,2.23131
13744,67.1172,25257.5,2.23427
13760,67.1953,25291.6,2.23744
13776,67.2734,25329.7,2.24052
13792,67.3516,25314.5,2.24259
13808,67.4297,25365.9,2.244396
13824,67.5078,25390.7,2.24661
13840,67.5859,25428.4,2.25076
13856,67.6641,25430.4,2.25225
13872,67.7422,25485.5,2.25525
13888,67.8203,25494.8,2.25755
13904,67.8984,25530.7,2.26138
13920,67.9766,25562.9,2.26253
13936,68.0547,25593.2,2.2656
13952,68.1328,25613.7,2.26616
13968,68.2109,25629.4,2.27133
13984,68.2891,25672.3,2.27293
14000,68.3672,25687.1,2.27482
14016,68.4453,25731.3,2.27877
14032,68.5234,25725.7,2.28216
14048,68.6016,25785.8,2.28564
14064,68.6797,25803.8,2.2861
14080,68.7578,25826,2.28901
14096,68.8359,25847,2.2909
14112,68.9141,25871.9,2.2942
14128,68.9922,25911.8,2.29608
14144,69.0703,25927.3,2.29954
14160,69.1484,25970.3,2.30288
14176,69.2266,25972.4,2.30435
14192,69.3047,26035.5,2.30881
14208,69.3828,26043.5,2.30921
14224,69.4609,26072.7,2.31253
14240,69.5391,26095.9,2.31425
14256,69.6172,26128,2.3186
14272,69.6953,26159.6,2.31955
14288,69.7734,26176.3,2.32298
14304,69.8516,26208.5,2.32501
14320,69.9297,26203.4,2.32664
14336,70.0078,26255.8,2.33028
14352,70.0859,26281.1,2.33354
14368,70.1641,26321.6,2.33728
14384,70.2422,26319.5,2.33809
14400,70.3203,26358.3,2.340766
14416,70.3984,26396.2,2.343888
14432,70.4766,26428.3,2.34555
14448,70.5547,26458.7,2.34962
14464,70.6328,26462.5,2.35123
14480,70.7109,26507.3,2.35428
14496,70.7891,26525.5,2.35654
14512,70.8672,26562.5,2.35965
14528,70.9453,26567.5,2.36044
14544,71.0234,26599.4,2.36504
14560,71.1016,26639.5,2.36735
14576,71.1797,26670.3,2.36986
14592,71.2578,26691,2.3727
14608,71.3359,26703.8,2.37464
14624,71.4141,26737.1,2.3776
14640,71.4922,26763.4,2.38057
14656,71.5703,26809.7,2.38332
14672,71.6484,26808.5,2.38398
14688,71.7266,26835.5,2.38774
14704,71.8047,26891.1,2.391
14720,71.8828,26909.3,2.39397
14736,71.9609,26944.1,2.39664
14752,72.0391,26939.6,2.3991
14768,72.1172,26986.4,2.40086
14784,72.1953,27017.6,2.40308
14800,72.2734,27054.4,2.40691
14816,72.3516,27055.8,2.409409
14832,72.4297,27100.5,2.410609
14848,72.5078,27106,2.41378
14864,72.5859,27160.7,2.417707
14880,72.6641,27191.4,2.41891
14896,72.7422,27197.4,2.42247
14912,72.8203,27234.7,2.4251
14928,72.8984,27261.1,2.42761
14944,72.9766,27305.9,2.43153
14960,73.0547,27301.2,2.43122
14976,73.1328,27338.5,2.4364
14992,73.2109,27354.8,2.43681
15008,73.2891,27408,2.44035
15024,73.3672,27421.9,2.44237
15040,73.4453,27431,2.44418
15056,73.5234,27479.4,2.44913
15072,73.6016,27509,2.45151
15088,73.6797,27540.9,2.45452
15104,73.7578,27529,2.45456
15120,73.8359,27586.3,2.45854
15136,73.9141,27599.5,2.46134
15152,73.9922,27642.9,2.46497
15168,74.0703,27672.6,2.46672
15184,74.1484,27685.9,2.46943
15200,74.2266,27713.1,2.47232
15216,74.3047,27752.8,2.47558
15232,74.3828,27784.4,2.4786
15248,74.4609,27786.1,2.47797
15264,74.5391,27827.8,2.48221
15280,74.6172,27834.7,2.4851
15296,74.6953,27892.4,2.48969
15312,74.7734,27889,2.4898
15328,74.8516,27931.8,2.49312
15344,74.9297,27939.8,2.49427
15360,75.0078,27986.4,2.49878
15376,75.0859,28019.5,2.49947
15392,75.1641,28030.4,2.50313
15408,75.2422,28057.2,2.505384
15424,75.3203,28061.9,2.50836
15440,75.3984,28114.7,2.511411
15456,75.4766,28124.3,2.51168
15472,75.5547,28173,2.51795
15488,75.6328,28173.4,2.51685
15504,75.7109,28215.3,2.52252
15520,75.7891,28244.7,2.52303
15536,75.8672,28268.5,2.52524
15552,75.9453,28289.9,2.5295
15568,76.0234,28305.5,2.53125
15584,76.1016,28364.2,2.5365
15600,76.1797,28371.8,2.53634
15616,76.2578,28403.3,2.53897
15632,76.3359,28429.1,2.54118
15648,76.4141,28442.6,2.54501
15664,76.4922,28465.6,2.54654
15680,76.5703,28505.6,2.55082
15696,76.6484,28527.6,2.55265
15712,76.7266,28528.9,2.55499
15728,76.8047,28599.4,2.558
15744,76.8828,28612.3,2.560971
15760,76.9609,28638.2,2.56343
15776,77.0391,28642.7,2.56383
15792,77.1172,28686.8,2.56868
15808,77.1953,28714.6,2.57127
15824,77.2734,28751.9,2.57361
15840,77.3516,28772.7,2.57629
15856,77.4297,28781.1,2.57813
15872,77.5078,28832,2.58042
15888,77.5859,28852.8,2.58312
15904,77.6641,28880.7,2.58608
15920,77.7422,28890.4,2.58843
15936,77.8203,28935.2,2.59082
15952,77.8984,28950.4,2.59334
15968,77.9766,28986.6,2.59908
15984,78.0547,29021,2.59887
16000,78.1328,29020.4,2.60105
16016,78.2109,29069.9,2.605999
16032,78.2891,29086.1,2.60747
16048,78.3672,29129.3,2.6099
16064,78.4453,29139.1,2.61156
16080,78.5234,29179.8,2.61482
16096,78.6016,29204,2.61802
16112,78.6797,29224.7,2.62125
16128,78.7578,29252.8,2.6236
16144,78.8359,29270.2,2.62436
16160,78.9141,29303.9,2.62852
16176,78.9922,29333.2,2.6312
16192,79.0703,29357.4,2.63409
16208,79.1484,29369.3,2.63543
16224,79.2266,29413.4,2.63954
16240,79.3047,29434.8,2.64126
16256,79.3828,29473.8,2.64502
16272,79.4609,29490.5,2.64648
16288,79.5391,29504.8,2.64861
16304,79.6172,29549.9,2.652209
16320,79.6953,29566.7,2.65639
16336,79.7734,29602.8,2.65754
16352,79.8516,29610.9,2.65837
16368,79.9297,29645.9,2.661998
16384,80.0078,29671.4,2.66549
16400,80.0859,29705.5,2.66819
16416,80.1641,29722.7,2.67012
16432,80.2422,29749.1,2.67202
16448,80.3203,29770.1,2.67441
16464,80.3984,29808.3,2.67796
16480,80.4766,29835.8,2.68097
16496,80.5547,29830.3,2.68134
16512,80.6328,29871.5,2.68476
16528,80.7109,29895.6,2.688391
16544,80.7891,29941.5,2.69025
16560,80.8672,29951.2,2.69253
16576,80.9453,29977.8,2.6958
16592,81.0234,30002.3,2.698
16608,81.1016,30038.2,2.70115
16624,81.1797,30067.4,2.70334
16640,81.2578,30068.6,2.70521
16656,81.3359,30113.1,2.70932
16672,81.4141,30124.8,2.71177
16688,81.4922,30156.6,2.713686
16704,81.5703,30182.1,2.71609
16720,81.6484,30215.3,2.71859
16736,81.7266,30231.3,2.72135
16752,81.8047,30254.4,2.72522
16768,81.8828,30305.9,2.727
16784,81.9609,30316.1,2.73043
16800,82.0391,30330.2,2.73133
16816,82.1172,30353.7,2.73453
16832,82.1953,30404.3,2.73736
16848,82.2734,30421.8,2.740561
16864,82.3516,30451.1,2.74206
16880,82.4297,30455.9,2.744823
16896,82.5078,30498.7,2.74724
16912,82.5859,30532.1,2.75022
16928,82.6641,30543.8,2.75295
16944,82.7422,30587.2,2.75582
16960,82.8203,30596.5,2.75753
16976,82.8984,30634.3,2.76201
16992,82.9766,30647.2,2.76243
17008,83.0547,30688.8,2.76663
17024,83.1328,30685.9,2.7673
17040,83.2109,30735.3,2.77174
17056,83.2891,30765.8,2.77341
17072,83.3672,30786,2.776026
17088,83.4453,30808.4,2.77934
17104,83.5234,30827.3,2.78082
17120,83.6016,30872.1,2.78456
17136,83.6797,30883.5,2.7863
17152,83.7578,30913.8,2.78908
17168,83.8359,30919.6,2.7919
17184,83.9141,30968.3,2.794754
17200,83.9922,30980.4,2.7972
17216,84.0703,31020.5,2.80037
17232,84.1484,31043.5,2.80221
17248,84.2266,31045.1,2.80596
17264,84.3047,31094.9,2.80772
17280,84.3828,31103.8,2.81021
17296,84.4609,31146,2.81309
17312,84.5391,31145,2.81458
17328,84.6172,31188.9,2.81868
17344,84.6953,31225.2,2.822202
17360,84.7734,31251.1,2.82205
17376,84.8516,31273.3,2.82566
17392,84.9297,31278.9,2.82855
17408,85.0078,31316.2,2.83098
17424,85.0859,31326.3,2.83363
17440,85.1641,31380.3,2.8366
17456,85.2422,31382.1,2.83731
17472,85.3203,31421.6,2.84035
17488,85.3984,31444.8,2.8448
17504,85.4766,31471.9,2.84615
17520,85.5547,31484.7,2.847775
17536,85.6328,31507.4,2.85168
17552,85.7109,31549.5,2.85501
17568,85.7891,31578.7,2.85589
17584,85.8672,31606.7,2.86036
17600,85.9453,31604.9,2.86041
17616,86.0234,31659.2,2.86488
17632,86.1016,31679.2,2.86769
17648,86.1797,31707.7,2.87012
17664,86.2578,31702.2,2.87087
17680,86.3359,31744.4,2.87519
17696,86.4141,31777.4,2.877
17712,86.4922,31807.3,2.88111
17728,86.5703,31836.3,2.88343
17744,86.6484,31835.7,2.88573
17760,86.7266,31882,2.8886
17776,86.8047,31894.7,2.89121
17792,86.8828,31930.8,2.89303
17808,86.9609,31946.5,2.89551
17824,87.0391,31973.5,2.89837
17840,87.1172,32008.7,2.90042
17856,87.1953,32017.5,2.90436
17872,87.2734,32067,2.90668
17888,87.3516,32077.7,2.90832
17904,87.4297,32102,2.91108
17920,87.5078,32130.3,2.91416
17936,87.5859,32170.7,2.9162
17952,87.6641,32180.4,2.91843
17968,87.7422,32199.2,2.92134
17984,87.8203,32239.8,2.92496
18000,87.8984,32247.8,2.92687
18016,87.9766,32296.1,2.930743
18032,88.0547,32307.3,2.93152
18048,88.1328,32332.1,2.93495
18064,88.2109,32337.6,2.93662
18080,88.2891,32394.8,2.94044
18096,88.3672,32389.9,2.94037
18112,88.4453,32439.7,2.94439
18128,88.5234,32462.2,2.94829
18144,88.6016,32491.9,2.9512
18160,88.6797,32518.2,2.95334
18176,88.7578,32536.9,2.95542
18192,88.8359,32559.9,2.95854
18208,88.9141,32574.6,2.96038
18224,88.9922,32621.2,2.96385
18240,89.0703,32638.2,2.96632
18256,89.1484,32663.4,2.96908
18272,89.2266,32682.2,2.97113
18288,89.3047,32707.6,2.97347
18304,89.3828,32738.7,2.97628
18320,89.4609,32772.7,2.97951
18336,89.5391,32789.1,2.98148
18352,89.6172,32806.3,2.98426
18368,89.6953,32847.2,2.9873
18384,89.7734,32863,2.9889
18400,89.8516,32896.6,2.99276
18416,89.9297,32905.8,2.99351
18432,90.0078,32948.4,2.99668
18448,90.0859,32981,2.99994
18464,90.1641,32991.4,3.00237
18480,90.2422,33021.7,3.005455
18496,90.3203,33046.2,3.00862
18512,90.3984,33077.9,3.01057
18528,90.4766,33092.8,3.01301
18544,90.5547,33128.1,3.01586
18560,90.6328,33139,3.01688
18576,90.7109,33172.4,3.0213
18592,90.7891,33207.1,3.02418
18608,90.8672,33233.9,3.02741
18624,90.9453,33241.8,3.02793
18640,91.0234,33262.4,3.03114
18656,91.1016,33308.3,3.03476
18672,91.1797,33318.4,3.03669
18688,91.2578,33352.7,3.0387
18704,91.3359,33352,3.0424
18720,91.4141,33402.9,3.04409
18736,91.4922,33418.9,3.04748
18752,91.5703,33456.7,3.05056
18768,91.6484,33472.1,3.05045
18784,91.7266,33486.7,3.05386
18800,91.8047,33526.3,3.05912
18816,91.8828,33551.7,3.06049
18832,91.9609,33578.1,3.06289
18848,92.0391,33588,3.06527
18864,92.1172,33627,3.06854
18880,92.1953,33650.2,3.0715
18896,92.2734,33677.2,3.07321
18912,92.3516,33708.4,3.0764
18928,92.4297,33719.7,3.07751
18944,92.5078,33764.9,3.08224
18960,92.5859,33784.8,3.08395
18976,92.6641,33809.9,3.08721
18992,92.7422,33819.1,3.08832
19008,92.8203,33852.6,3.09103
19024,92.8984,33875.5,3.09446
19040,92.9766,33912.6,3.09761
19056,93.0547,33922.1,3.09822
19072,93.1328,33950.7,3.10219
19088,93.2109,33976.4,3.10465
19104,93.2891,34007,3.10521
19120,93.3672,34039.6,3.11058
19136,93.4453,34037.5,3.11212
19152,93.5234,34084.5,3.1155
19168,93.6016,34085.4,3.11742
19184,93.6797,34128.6,3.12037
19200,93.7578,34152.9,3.12155
19216,93.8359,34151,3.12589
19232,93.9141,34204.8,3.12731
19248,93.9922,34228.5,3.13056
19264,94.0703,34247.3,3.1325
19280,94.1484,34239.3,3.1347
19296,94.2266,34303,3.13845
19312,94.3047,34307.1,3.13996
19328,94.3828,34356.8,3.14341
19344,94.4609,34376.5,3.143225
19360,94.5391,34395.7,3.14709
19376,94.6172,34423.1,3.15124
19392,94.6953,34455.3,3.1543
19408,94.7734,34478.1,3.15793
19424,94.8516,34468.8,3.15881
19440,94.9297,34518.5,3.16082
19456,95.0078,34524.7,3.16496
19472,95.0859,34582.3,3.16676
19488,95.1641,34599.2,3.16908
19504,95.2422,34622.1,3.17055
19520,95.3203,34639.3,3.17294
19536,95.3984,34671.1,3.17725
19552,95.4766,34697.6,3.17961
19568,95.5547,34717.1,3.18208
19584,95.6328,34735.1,3.18492
19600,95.7109,34752.2,3.18693
19616,95.7891,34810.3,3.19124
19632,95.8672,34805.8,3.19237
19648,95.9453,34845.7,3.19492
19664,96.0234,34860.5,3.19662
19680,96.1016,34889.4,3.20109
19696,96.1797,34917.1,3.20369
19712,96.2578,34928.4,3.20554
19728,96.3359,34964,3.20737
19744,96.4141,34971.6,3.21085
19760,96.4922,35016.7,3.21266
19776,96.5703,35026.1,3.215894
19792,96.6484,35058.8,3.218003
19808,96.7266,35072.1,3.22
19824,96.8047,35112.3,3.22341
19840,96.8828,35143.9,3.22659
19856,96.9609,35157.2,3.22883
19872,97.0391,35181.9,3.23286
19888,97.1172,35200.2,3.23294
19904,97.1953,35241.4,3.237231
19920,97.2734,35251.2,3.23919
19936,97.3516,35281.7,3.24247
19952,97.4297,35299.3,3.24286
19968,97.5078,35319.6,3.24746
19984,97.5859,35357.5,3.24955
20000,97.6641,35377.6,3.25254
20016,97.7422,35405.8,3.25473
20032,97.8203,35433.3,3.25616
20048,97.8984,35453.2,3.26129
20064,97.9766,35472.9,3.2622
20080,98.0547,35499.9,3.26557
20096,98.1328,35502.5,3.26732
20112,98.2109,35550.1,3.27171
20128,98.2891,35568,3.27163
20144,98.3672,35592.6,3.27568
20160,98.4453,35619.2,3.27838
20176,98.5234,35633.4,3.28075
20192,98.6016,35672.8,3.284158
20208,98.6797,35697.8,3.2853
20224,98.7578,35724.4,3.28899
20240,98.8359,35737.6,3.28987
20256,98.9141,35775.8,3.29391
20272,98.9922,35790.6,3.296649
20288,99.0703,35814,3.29934
20304,99.1484,35832,3.30059
20320,99.2266,35860.8,3.30401
20336,99.3047,35889.9,3.30806
20352,99.3828,35911.5,3.30907
20368,99.4609,35943.6,3.3112
20384,99.5391,35964.2,3.31363
20400,99.6172,35980.7,3.3181
20416,99.6953,36009.3,3.32007
20432,99.7734,36043.4,3.32277
20448,99.8516,36049.7,3.32537
20464,99.9297,36072.9,3.32824
20480,100.008,36109.7,3.33057
20496,100.086,36136.4,3.333389
20512,100.164,36156.3,3.33636
20528,100.242,36159.7,3.33782
20544,100.32,36204.8,3.34149
20560,100.398,36214.1,3.342664
20576,100.477,36257.3,3.34723
20592,100.555,36273.9,3.349679
20608,100.633,36296.6,3.35225
20624,100.711,36320.9,3.35475
20640,100.789,36343.4,3.35605
20656,100.867,36369.1,3.35879
20672,100.945,36386.2,3.36127
20688,101.023,36424.7,3.36372
20704,101.102,36447.5,3.36705
20720,101.18,36473.6,3.36932
20736,101.258,36478.4,3.37129
20752,101.336,36516.6,3.37537
20768,101.414,36537.3,3.37734
20784,101.492,36557.4,3.37972
20800,101.57,36590.4,3.38158
20816,101.648,36586.8,3.38587
20832,101.727,36631.4,3.3884
20848,101.805,36655.2,3.3905
20864,101.883,36689.4,3.39326
20880,101.961,36697.5,3.39379
20896,102.039,36735,3.39936
20912,102.117,36752.2,3.39999
20928,102.195,36782.8,3.4044
20944,102.273,36808.9,3.40624
20960,102.352,36811.8,3.40795
20976,102.43,36836.4,3.411571
20992,102.508,36862.6,3.41306
21008,102.586,36905.8,3.416836
21024,102.664,36907.1,3.417681
21040,102.742,36936.7,3.42216
21056,102.82,36951.2,3.42385
21072,102.898,36999.1,3.42751
21088,102.977,37023.7,3.42954
21104,103.055,37040.8,3.43227
21120,103.133,37061.8,3.43448
21136,103.211,37077.9,3.43516
21152,103.289,37124,3.44025
21168,103.367,37127.5,3.44223
21184,103.445,37148.2,3.44491
21200,103.523,37162.8,3.44507
21216,103.602,37218.3,3.450428
21232,103.68,37235.3,3.4526
21248,103.758,37253.4,3.45546
21264,103.836,37277.6,3.458735
21280,103.914,37292.9,3.46072
21296,103.992,37329.6,3.46371
21312,104.07,37344.5,3.46525
21328,104.148,37372.4,3.46807
21344,104.227,37378.8,3.47121
21360,104.305,37427,3.47422
21376,104.383,37450.8,3.4749
21392,104.461,37474.5,3.47936
21408,104.539,37491.6,3.48095
21424,104.617,37498.6,3.48386
21440,104.695,37543.7,3.48693
21456,104.773,37558.4,3.49006
21472,104.852,37583.6,3.49132
21488,104.93,37599.2,3.49434
21504,105.008,37640.1,3.49726
21520,105.086,37660.5,3.50068
21536,105.164,37675.8,3.50148
21552,105.242,37700.4,3.50469
21568,105.32,37724.4,3.506768
21584,105.398,37758.7,3.510041
21600,105.477,37780.5,3.51309
21616,105.555,37810.9,3.516288
21632,105.633,37816.1,3.51734
21648,105.711,37855.5,3.52121
21664,105.789,37871.4,3.52317
21680,105.867,37905,3.52562
21696,105.945,37916.3,3.52789
21712,106.023,37943.8,3.53048
21728,106.102,37960.6,3.53219
21744,106.18,37995.5,3.53707
21760,106.258,38026.6,3.54003
21776,106.336,38007.1,3.54121
21792,106.414,38072,3.54533
21808,106.492,38077.7,3.54631
21824,106.57,38113.7,3.55007
21840,106.648,38127,3.55111
21856,106.727,38152.8,3.55324
21872,106.805,38184,3.55775
21888,106.883,38192.7,3.55999
21904,106.961,38238,3.56257
21920,107.039,38230.6,3.5641
21936,107.117,38282.8,3.56794
21952,107.195,38294.5,3.56989
21968,107.273,38328.4,3.573149
21984,107.352,38324.4,3.57504
22000,107.43,38350.9,3.57785
22016,107.508,38387.2,3.5802
22032,107.586,38403,3.5821
22048,107.664,38440.4,3.58468
22064,107.742,38446.7,3.58842
22080,107.82,38487.6,3.591042
22096,107.898,38503,3.5928
22112,107.977,38534.7,3.59679
22128,108.055,38545.3,3.59864
22144,108.133,38578.9,3.602005
22160,108.211,38610.2,3.60483
22176,108.289,38620.1,3.60633
22192,108.367,38644.9,3.60918
22208,108.445,38665,3.611829
22224,108.523,38673.4,3.61385
22240,108.602,38710.1,3.61627
22256,108.68,38739,3.61979
22272,108.758,38762.1,3.6216
22288,108.836,38788.4,3.62424
22304,108.914,38797.8,3.62675
22320,108.992,38830.8,3.63089
22336,109.07,38848.1,3.63221
22352,109.148,38864.8,3.63308
22368,109.227,38894.5,3.63743
22384,109.305,38910.2,3.63953
22400,109.383,38947.2,3.64387
22416,109.461,38966.4,3.64441
22432,109.539,38983.8,3.64835
22448,109.617,39007.3,3.65031
22464,109.695,39042.3,3.653862
22480,109.773,39054.8,3.656656
22496,109.852,39068.8,3.65775
22512,109.93,39096,3.65987
22528,110.008,39119.6,3.66421
22544,110.086,39150.4,3.66702
22560,110.164,39166.5,3.66951
22576,110.242,39189.3,3.67002
22592,110.32,39195.5,3.67471
22608,110.398,39241.3,3.67683
22624,110.477,39254.4,3.67889
22640,110.555,39282.1,3.68175
22656,110.633,39303,3.68351
22672,110.711,39323.4,3.68772
22688,110.789,39352.8,3.68986
22704,110.867,39366.9,3.691632
22720,110.945,39397.7,3.6967
22736,111.023,39408.7,3.69756
22752,111.102,39451,3.70043
22768,111.18,39470.7,3.70313
22784,111.258,39498.4,3.70559
22800,111.336,39506.2,3.70751
22816,111.414,39539.1,3.71245
22832,111.492,39559.1,3.71301
22848,111.57,39578.1,3.71568
22864,111.648,39603.7,3.71813
22880,111.727,39600.7,3.72003
22896,111.805,39645.9,3.72438
22912,111.883,39655.2,3.72585
22928,111.961,39696,3.72984
22944,112.039,39710.2,3.73278
22960,112.117,39729.1,3.73424
22976,112.195,39763.6,3.737572
22992,112.273,39776.3,3.73879
23008,112.352,39799.5,3.74323
23024,112.43,39816.3,3.74521
23040,112.508,39853.8,3.74835
23056,112.586,39864.5,3.75034
23072,112.664,39894.9,3.7521
23088,112.742,39903.3,3.75541
23104,112.82,39942,3.75831
23120,112.898,39964.6,3.76139
23136,112.977,39969.8,3.76219
23152,113.055,40005.7,3.76518
23168,113.133,40003.5,3.76827
23184,113.211,40054.8,3.77101
23200,113.289,40063.2,3.7733
23216,113.367,40096,3.777029
23232,113.445,40112.3,3.778811
23248,113.523,40134.1,3.78086
23264,113.602,40149.8,3.78407
23280,113.68,40177.2,3.78614
23296,113.758,40198.2,3.78963
23312,113.836,40213,3.7905
23328,113.914,40245.5,3.79396
23344,113.992,40258.5,3.79684
23360,114.07,40291.1,3.80031
23376,114.148,40302.2,3.80149
23392,114.227,40330.5,3.8036
23408,114.305,40352.5,3.80745
23424,114.383,40369.6,3.80939
23440,114.461,40398.5,3.81286
23456,114.539,40404.2,3.81505
23472,114.617,40439.8,3.81708
23488,114.695,40451.4,3.81998
23504,114.773,40486,3.82205
23520,114.852,40497.5,3.82476
23536,114.93,40526.3,3.82937
23552,115.008,40548.3,3.83006
23568,115.086,40575.8,3.83232
23584,115.164,40589.2,3.83698
23600,115.242,40608.6,3.83804
23616,115.32,40626.9,3.8419
23632,115.398,40636.8,3.84312
23648,115.477,40678.7,3.8476
23664,115.555,40687.2,3.84803
23680,115.633,40705.2,3.850924
23696,115.711,40719.6,3.85291
23712,115.789,40760.6,3.85588
23728,115.867,40779.8,3.85949
23744,115.945,40786.7,3.861558
23760,116.023,40813.3,3.86437
23772,116.082,-1459.99,4.08507