File: ASM109_2021_data/MTS/Quasi/MTS_quasi_6.csv
,Time [s],Load [N],Displacement [mm]
0,0.0078125,-305.857,-7.59959e-05
17,0.0908203,-250.197,0.00106841
34,0.173828,-200.426,0.00384092
51,0.256836,-174.354,0.00585616
68,0.339844,-118.96,0.0103149
85,0.422852,-109.252,0.0118925
102,0.505859,-61.8645,0.016036
119,0.588867,-27.3738,0.0168984
136,0.671875,-39.5547,0.0207737
153,0.754883,46.4513,0.0228591
170,0.837891,66.0134,0.0266039
187,0.920898,124.579,0.0285678
204,1.00391,150.99,0.0317439
221,1.08691,107.744,0.0337596
238,1.16992,204.009,0.0362916
255,1.25293,244.566,0.0389113
272,1.33594,299.201,0.0433414
289,1.41895,302.281,0.04338786
306,1.50195,349.247,0.0473151
323,1.58496,393.839,0.0501962
340,1.66797,380.202,0.0521122
357,1.75098,460.229,0.0559124
374,1.83398,491.529,0.0583085
391,1.91699,527.142,0.063052
408,2.0,572.101,0.0636828
425,2.08301,570.094,0.0674835
442,2.16602,638.543,0.0695166
459,2.24902,673.363,0.0711724
476,2.33203,716.122,0.0751385
493,2.41504,735.409,0.0784229
510,2.49805,721.722,0.0801431
527,2.58105,793.858,0.0828923
544,2.66406,827.719,0.0847341
561,2.74707,881.544,0.0904222
578,2.83008,918.565,0.0926551
595,2.91309,947.837,0.09464398
612,2.99609,992.199,0.0969788
629,3.0791,965.278,0.0980137
646,3.16211,1042.74,0.103203
663,3.24512,1093.49,0.106305
680,3.328125,1110.52,0.107902
697,3.41113,1160.67,0.111962
714,3.49414,1154.82,0.113109
731,3.57715,1210.83,0.116727
748,3.66016,1223.48,0.118277
765,3.74316,1309.14,0.122682
782,3.82617,1332.11,0.125328
799,3.90918,1372.19,0.128049
816,3.99219,1394.5,0.130365
833,4.0752,1397.12,0.133137
850,4.1582,1463.9,0.137382
867,4.24121,1502.39,0.138485
884,4.32422,1539.18,0.143594
901,4.40723,1573.66,0.144719
918,4.49023,1558.35,0.146475
935,4.57324,1639.27,0.15078
952,4.65625,1662.79,0.151889
969,4.73926,1725.52,0.156683
986,4.82227,1732.21,0.157236
1003,4.90527,1753.35,0.160732
1020,4.98828,1796.73,0.162811
1037,5.07129,1806.48,0.16635
1054,5.1543,1896.77,0.170078
1071,5.2373,1935.2,0.173582
1088,5.32031,1959.42,0.175433
1105,5.40332,1990.23,0.178108
1122,5.48633,1970.9,0.179116
1139,5.56934,2042.08,0.183401
1156,5.65234,2092.48,0.182558
1173,5.73535,2142.17,0.189094
1190,5.81836,2174.62,0.191145
1207,5.90137,2181.56,0.1934664
1224,5.984375,2221.15,0.195761
1241,6.06738,2232.11,0.199015
1258,6.15039,2298.06,0.202354
1275,6.2334,2353.01,0.20647
1292,6.31641,2375.93,0.206435
1309,6.39941,2408.26,0.211076
1326,6.48242,2397.2,0.213379
1343,6.56543,2475.51,0.215019
1360,6.64844,2506.16,0.218305
1377,6.73145,2538.07,0.223254
1394,6.81445,2571.6,0.224518
1411,6.89746,2579.81,0.226813
1428,6.98047,2650.58,0.228877
1445,7.06348,2665.13,0.232507
1462,7.14648,2715.49,0.236873
1479,7.22949,2756.55,0.238582
1496,7.3125,2780.68,0.239626
1513,7.39551,2819.26,0.242853
1530,7.47852,2807.39,0.245094
1547,7.56152,2885.49,0.248905
1564,7.64453,2932.28,0.252984
1581,7.72754,2961.21,0.2542761
1598,7.81055,2997.75,0.258211
1615,7.89355,2989.16,0.259384
1632,7.97656,3048.43,0.262349
1649,8.05957,3065.35,0.265451
1666,8.14258,3126.38,0.270064
1683,8.22559,3174.14,0.271597
1700,8.30859,3196.55,0.274533
1717,8.3916,3240.28,0.277225
1734,8.47461,3221.63,0.278733
1751,8.55762,3280.14,0.282089
1768,8.640625,3340.77,0.2844353
1785,8.72363,3370,0.287981
1802,8.80664,3399,0.290414
1819,8.88965,3372.93,0.292232
1836,8.97266,3471.2,0.297524
1853,9.05566,3488.01,0.298828
1870,9.13867,3545.03,0.302221
1887,9.22168,3588.62,0.305733
1904,9.30469,3601.02,0.306382
1921,9.3877,3645.61,0.310126
1938,9.4707,3652.81,0.312188
1955,9.55371,3713.37,0.317868
1972,9.63672,3763.47,0.319557
1989,9.71973,3756.69,0.323544
2006,9.80273,3827.98,0.324913
2023,9.88574,3822.82,0.32516
2040,9.96875,3867.8,0.329118
2057,10.0518,3901.94,0.333883
2074,10.1348,3949.69,0.3338483
2091,10.2178,3989.15,0.338221
2108,10.3008,4011.39,0.338397
2125,10.3838,4057.35,0.342873
2142,10.4668,4058.13,0.345081
2159,10.5498,4109.91,0.348617
2176,10.6328,4160.51,0.350766
2193,10.7158,4188.68,0.353685
2210,10.7988,4224.04,0.356819
2227,10.8818,4232.57,0.358069
2244,10.9648,4288.3,0.362012
2261,11.0479,4326.05,0.365738
2278,11.1309,4355.69,0.36872
2295,11.2139,4388.85,0.370717
2312,11.2969,4390.83,0.373093
2329,11.3799,4450.73,0.376256
2346,11.4629,4473.66,0.378422
2363,11.5459,4540.58,0.381263
2380,11.6289,4575.23,0.384892
2397,11.7119,4596.41,0.388277
2414,11.7949,4639.59,0.390424
2431,11.8779,4612.92,0.390319
2448,11.9609,4695.71,0.394102
2465,12.0439,4737.06,0.399364
2482,12.127,4764.74,0.401807
2499,12.21,4814.97,0.404177
2516,12.293,4802.95,0.405084
2533,12.376,4872.19,0.41098
2550,12.459,4892.19,0.411981
2567,12.542,4936.24,0.414345
2584,12.625,4977.7,0.417161
2601,12.708,4998.2,0.418746
2618,12.791,5047.39,0.423638
2635,12.874,5037.9,0.426872
2652,12.957,5111.9,0.429155
2669,13.04,5140.91,0.431674
2686,13.123,5172.61,0.434728
2703,13.2061,5221.21,0.437982
2720,13.2891,5196.72,0.438024
2737,13.37207,5259.51,0.4434
2754,13.4551,5314.4,0.447025
2771,13.5381,5329.29,0.448154
2788,13.6211,5384.36,0.451996
2805,13.7041,5385.44,0.453522
2822,13.7871,5436.74,0.456288
2839,13.8701,5461.09,0.458207
2856,13.9531,5496.6,0.46266
2873,14.0361,5539.4,0.465679
2890,14.1191,5568.63,0.467839
2907,14.2021,5618.17,0.470283
2924,14.2852,5591.98,0.47229
2941,14.3682,5664.59,0.475279
2958,14.4512,5705.8,0.478667
2975,14.53418,5748.01,0.4805325
2992,14.6172,5785.01,0.484548
3009,14.7002,5763.05,0.48741
3026,14.7832,5850.6,0.489194
3043,14.8662,5869.7,0.490333
3060,14.9492,5900.09,0.495893
3077,15.0322,5953.58,0.49907
3094,15.1152,5980.68,0.5018
3111,15.1982,6022.68,0.503559
3128,15.28125,6005.83,0.504806
3145,15.3643,6087.21,0.508806
3162,15.4473,6123.69,0.512423
3179,15.5303,6156.75,0.514888
3196,15.6133,6189.45,0.516869
3213,15.6963,6188.81,0.52007
3230,15.7793,6247.37,0.523531
3247,15.8623,6280.4,0.526333
3264,15.9453,6318.29,0.528656
3281,16.02832,6360.89,0.5320363
3298,16.1113,6344.57,0.5324471
3315,16.1943,6429.67,0.536503
3332,16.2773,6418.69,0.538018
3349,16.3604,6489.21,0.543146
3366,16.4434,6521.95,0.547187
3383,16.5264,6553.85,0.5476141
3400,16.6094,6591.95,0.5509606
3417,16.6924,6583.37,0.553308
3434,16.7754,6649.32,0.556959
3451,16.8584,6677.12,0.558611
3468,16.9414,6708.3,0.560997
3485,17.0244,6772.56,0.565884
3502,17.1074,6769.04,0.566255
3519,17.19043,6821.69,0.570277
3536,17.2734,6827.1,0.57179
3553,17.3564,6890.3,0.575746
3570,17.4395,6931.96,0.579432
3587,17.5225,6963.78,0.581345
3604,17.6055,7007.4,0.584193
3621,17.6885,6971.07,0.584314
3638,17.7715,7049.94,0.589715
3655,17.8545,7091.81,0.592699
3672,17.9375,7128.2,0.5951187
3689,18.0205,7176.18,0.599157
3706,18.1035,7145.41,0.599485
3723,18.1865,7224.34,0.603498
3740,18.2695,7247.43,0.604535
3757,18.3525,7299.17,0.608802
3774,18.4355,7337.25,0.612441
3791,18.5186,7359.65,0.614427
3808,18.6016,7416.63,0.617186
3825,18.68457,7404.43,0.619145
3842,18.7676,7462.35,0.623706
3859,18.8506,7511.65,0.626051
3876,18.9336,7539.58,0.628568
3893,19.0166,7581.57,0.632386
3910,19.0996,7556.14,0.631189
3927,19.1826,7637.52,0.635881
3944,19.2656,7660.65,0.638477
3961,19.3486,7697,0.642457
3978,19.4316,7730.44,0.646153
3995,19.5146,7741.75,0.646958
4012,19.5977,7801.44,0.650374
4029,19.6807,7799.43,0.652002
4046,19.7637,7856.11,0.656356
4063,19.84668,7897.62,0.659823
4080,19.9297,7935.19,0.660971
4097,20.0127,7955.93,0.66384
4114,20.0957,7957.4,0.665493
4131,20.1787,8024.9,0.669978
4148,20.2617,8058.8,0.671449
4165,20.3447,8080.22,0.6762296
4182,20.4277,8122.52,0.677816
4199,20.5107,8129.51,0.679821
4216,20.59375,8202.7,0.6819092
4233,20.6768,8201.98,0.685879
4250,20.7598,8248.77,0.688561
4267,20.8428,8293.83,0.691674
4284,20.9258,8312.3,0.69429
4301,21.0088,8372.79,0.698369
4318,21.0918,8343.93,0.699027
4335,21.1748,8416.84,0.701926
4352,21.2578,8455.4,0.704313
4369,21.34082,8482.46,0.707868
4386,21.4238,8518.55,0.712286
4403,21.5068,8513.93,0.712547
4420,21.5898,8583.63,0.716135
4437,21.6729,8608.57,0.719799
4454,21.7559,8627.03,0.721651
4471,21.8389,8692.71,0.725646
4488,21.9219,8710.5,0.72705
4505,22.0049,8755.78,0.730401
4522,22.0879,8772.86,0.732159
4539,22.1709,8809.23,0.735157
4556,22.2539,8845.16,0.738285
4573,22.3369,8872.34,0.741454
4590,22.4199,8934.78,0.74517
4607,22.50293,8892.94,0.745389
4624,22.5859,8990.43,0.749868
4641,22.6689,9014.84,0.75215
4658,22.752,9032,0.756126
4675,22.835,9088.95,0.757602
4692,22.918,9102.33,0.759307
4709,23.001,9141.99,0.764346
4726,23.084,9154.08,0.765759
4743,23.167,9197.67,0.770059
4760,23.25,9249.89,0.771748
4777,23.333,9266.33,0.774288
4794,23.416,9328.8,0.778417
4811,23.499,9293.16,0.778486
4828,23.582,9363.06,0.783088
4845,23.665,9405.14,0.785639
4862,23.748,9426.9,0.788611
4879,23.8311,9477.64,0.791472
4896,23.9141,9509.07,0.793144
4913,23.99707,9542.93,0.796468
4930,24.0801,9560.06,0.797682
4947,24.1631,9606.41,0.802136
4964,24.2461,9629.62,0.805036
4981,24.3291,9670.33,0.807842
4998,24.4121,9712.07,0.8113991
5015,24.4951,9711.2,0.811745
5032,24.5781,9759.05,0.815426
5049,24.6611,9802.58,0.818628
5066,24.7441,9817.35,0.821684
5083,24.8271,9868.87,0.82405
5100,24.9102,9881.29,0.826655
5117,24.9932,9935.14,0.829048
5134,25.0762,9930.96,0.832367
5151,25.15918,9992.34,0.835456
5168,25.2422,10027.9,0.839209
5185,25.3252,10054,0.839713
5202,25.4082,10097.7,0.844353
5219,25.4912,10113.6,0.845245
5236,25.5742,10148.2,0.848661
5253,25.6572,10195.5,0.851892
5270,25.7402,10226.3,0.854825
5287,25.8232,10268,0.8573873
5304,25.90625,10249.9,0.858293
5321,25.9893,10324.5,0.862807
5338,26.0723,10344.7,0.863945
5355,26.1553,10373.9,0.867451
5372,26.2383,10436.1,0.872776
5389,26.3213,10452,0.874033
5406,26.4043,10504.3,0.878246
5423,26.4873,10522.4,0.878303
5440,26.5703,10523.7,0.88356
5457,26.65332,10580.5,0.886063
5474,26.7363,10605,0.887745
5491,26.8193,10664.7,0.891135
5508,26.9023,10650.6,0.892698
5525,26.9854,10687.2,0.897133
5542,27.0684,10742,0.90005
5559,27.1514,10787.5,0.902523
5576,27.2344,10829.5,0.905136
5593,27.3174,10850.8,0.90687
5610,27.4004,10892.8,0.910326
5627,27.4834,10907,0.912188
5644,27.5664,10940.6,0.916496
5661,27.6494,10986.7,0.918868
5678,27.7324,11003.8,0.920875
5695,27.81543,11065.8,0.925197
5712,27.8984,11069.2,0.924475
5729,27.9814,11109.7,0.928959
5746,28.0645,11147.9,0.9327
5763,28.1475,11179,0.933582
5780,28.2305,11228.3,0.938623
5797,28.3135,11209.7,0.940321
5814,28.3965,11274.1,0.943384
5831,28.4795,11300.9,0.944726
5848,28.5625,11332.1,0.9496249
5865,28.6455,11371.2,0.951229
5882,28.7285,11390,0.953026
5899,28.8115,11443.8,0.958046
5916,28.8945,11458.8,0.958647
5933,28.9775,11483.6,0.961881
5950,29.0605,11531.6,0.964473
5967,29.1436,11562.8,0.96851
5984,29.2266,11609.5,0.9727813
6001,29.30957,11631.1,0.973103
6018,29.3926,11665.8,0.977366
6035,29.4756,11703.2,0.980635
6052,29.5586,11711.6,0.981461
6069,29.6416,11775.4,0.984602
6086,29.7246,11792.4,0.987698
6103,29.8076,11831.3,0.9903726
6120,29.8906,11853.4,0.9923892
6137,29.9736,11883.5,0.993999
6154,30.0566,11929.1,0.999272
6171,30.1396,11959.3,1.00149
6188,30.2227,11991.4,1.00612
6205,30.3057,12024.8,1.00688
6222,30.3887,12031.4,1.00842
6239,30.47168,12060.6,1.01154
6256,30.5547,12106.3,1.01509
6273,30.6377,12157.8,1.01925
6290,30.7207,12182.5,1.02008
6307,30.8037,12216.7,1.0243
6324,30.8867,12219.5,1.02544
6341,30.9697,12257.3,1.03021
6358,31.0527,12323.5,1.0328
6375,31.1357,12341.8,1.03409
6392,31.21875,12401.1,1.03723
6409,31.3018,12400.4,1.039483
6426,31.3848,12438.8,1.04343
6443,31.4678,12473.6,1.04642
6460,31.5508,12504.1,1.0491
6477,31.6338,12559.1,1.052527
6494,31.7168,12582.8,1.05506
6511,31.7998,12608.9,1.05734
6528,31.8828,12634.7,1.05936
6545,31.96582,12657,1.06246
6562,32.0488,12703.3,1.06598
6579,32.1318,12725.1,1.06812
6596,32.2148,12778.7,1.07139
6613,32.2979,12814.2,1.07399
6630,32.3809,12825.2,1.07695
6647,32.4639,12870.6,1.08011
6664,32.5469,12899.1,1.08223
6681,32.6299,12951.2,1.08627
6698,32.7129,12953.8,1.08728
6715,32.7959,12986.1,1.08995
6732,32.8789,13040.9,1.09418
6749,32.9619,13052.6,1.09591
6766,33.0449,13111,1.10081
6783,33.12793,13133.8,1.1014
6800,33.2109,13169.6,1.10462
6817,33.2939,13178.8,1.10677
6834,33.377,13210.1,1.10913
6851,33.46,13267.1,1.11347
6868,33.543,13285.7,1.11509
6885,33.626,13326.7,1.11913
6902,33.709,13351.2,1.12023
6919,33.792,13374.6,1.12397
6936,33.875,13408.8,1.12627
6953,33.958,13433.6,1.13002
6970,34.041,13488.3,1.13328
6987,34.124,13511.9,1.13435
7004,34.207,13541.4,1.13738
7021,34.29,13578.2,1.14011
7038,34.373,13569.2,1.14327
7055,34.4561,13639.9,1.14519
7072,34.5391,13637.1,1.14838
7089,34.62207,13699.3,1.15168
7106,34.7051,13732,1.15437
7123,34.7881,13755.5,1.15692
7140,34.8711,13788.3,1.15823
7157,34.9541,13815.3,1.1617
7174,35.0371,13872.5,1.16789
7191,35.1201,13871.1,1.16698
7208,35.2031,13923.5,1.17
7225,35.2861,13942.2,1.173
7242,35.3691,13955.7,1.17556
7259,35.4521,13992.9,1.17983
7276,35.5352,14041.8,1.18104
7293,35.6182,14081.8,1.18615
7310,35.7012,14104.2,1.18689
7327,35.78418,14101.5,1.18911
7344,35.8672,14162.2,1.19285
7361,35.9502,14179,1.19474
7378,36.0332,14240.8,1.19915
7395,36.1162,14250.3,1.20073
7412,36.1992,14267.7,1.20196
7429,36.2822,14319.5,1.20567
7446,36.3652,14346.9,1.20996
7463,36.4482,14399,1.21307
7480,36.53125,14418.8,1.21521
7497,36.6143,14454.6,1.217
7514,36.6973,14483.4,1.22059
7531,36.7803,14500.6,1.22323
7548,36.8633,14551.2,1.22574
7565,36.9463,14570.1,1.22946
7582,37.0293,14616.3,1.23109
7599,37.1123,14628.3,1.23412
7616,37.1953,14675.7,1.23623
7633,37.27832,14702.4,1.23966
7650,37.3613,14708.1,1.24211
7667,37.4443,14778.4,1.24549
7684,37.5273,14791,1.24798
7701,37.6104,14828.2,1.25029
7718,37.6934,14862.4,1.25353
7735,37.7764,14851.7,1.25606
7752,37.8594,14935.2,1.26016
7769,37.9424,14941.2,1.26052
7786,38.0254,14994.1,1.265185
7803,38.1084,15027,1.26739
7820,38.1914,15051.4,1.26908
7837,38.2744,15081.1,1.27311
7854,38.3574,15106.5,1.27605
7871,38.44043,15156.9,1.28023
7888,38.5234,15179.6,1.28065
7905,38.6064,15209,1.28443
7922,38.6895,15234.2,1.28715
7939,38.7725,15250.5,1.28837
7956,38.8555,15319.7,1.29418
7973,38.9385,15319.9,1.29476
7990,39.0215,15366.9,1.29901
8007,39.1045,15403.8,1.29956
8024,39.1875,15413.8,1.30146
8041,39.2705,15463.8,1.3059
8058,39.3535,15488.8,1.30904
8075,39.4365,15537.2,1.31053
8092,39.5195,15566.1,1.31383
8109,39.6025,15586.5,1.31802
8126,39.6855,15626.1,1.31918
8143,39.7686,15627.7,1.32253
8160,39.8516,15690.8,1.32524
8177,39.93457,15713.4,1.328
8194,40.0176,15736.9,1.33123
8211,40.1006,15787.1,1.33369
8228,40.1836,15768.1,1.33643
8245,40.2666,15840.4,1.33987
8262,40.3496,15868.1,1.3411
8279,40.4326,15917.3,1.3463
8296,40.5156,15940.6,1.34724
8313,40.5986,15966.9,1.35054
8330,40.6816,15996.9,1.35438
8347,40.7646,16014.2,1.35506
8364,40.8477,16074.7,1.35911
8381,40.9307,16103.1,1.36041
8398,41.0137,16135.8,1.365
8415,41.09668,16165.1,1.36691
8432,41.1797,16156.2,1.3689
8449,41.2627,16228.7,1.37394
8466,41.3457,16243.9,1.375401
8483,41.4287,16290,1.37813
8500,41.5117,16321.3,1.3818
8517,41.5947,16334.1,1.38315
8534,41.6777,16385.2,1.38565
8551,41.7607,16404.7,1.38908
8568,41.84375,16456.3,1.392863
8585,41.9268,16441.9,1.39363
8602,42.0098,16513.2,1.39834
8619,42.0928,16537.1,1.40005
8636,42.1758,16521.9,1.40072
8653,42.2588,16610.5,1.40668
8670,42.3418,16616.3,1.40897
8687,42.4248,16677.4,1.41263
8704,42.5078,16705.9,1.41468
8721,42.59082,16718.4,1.4154
8738,42.6738,16758.8,1.41955
8755,42.7568,16771.5,1.42199
8772,42.8398,16842.2,1.42577
8789,42.9229,16858.8,1.42787
8806,43.0059,16875.6,1.4311
8823,43.0889,16921.7,1.43306
8840,43.1719,16942.1,1.43443
8857,43.2549,16985.3,1.439783
8874,43.3379,17008.5,1.44212
8891,43.4209,17040.3,1.44417
8908,43.5039,17084.3,1.44819
8925,43.5869,17094,1.44914
8942,43.6699,17130,1.45275
8959,43.75293,17149.7,1.45617
8976,43.8359,17213,1.45912
8993,43.9189,17248.7,1.461946
9010,44.002,17260.5,1.463
9027,44.085,17296.4,1.46628
9044,44.168,17310.3,1.469
9061,44.251,17354.1,1.47241
9078,44.334,17396.8,1.47704
9095,44.417,17422,1.47742
9112,44.5,17458.4,1.4797
9129,44.583,17458,1.48217
9146,44.666,17505.6,1.48654
9163,44.749,17535,1.48674
9180,44.832,17584.2,1.49127
9197,44.915,17613.8,1.49527
9214,44.998,17617.1,1.49705
9231,45.0811,17672.2,1.49986
9248,45.1641,17686.5,1.50161
9265,45.24707,17729.9,1.50667
9282,45.3301,17772.8,1.50816
9299,45.4131,17806.7,1.5133
9316,45.4961,17837.2,1.51388
9333,45.5791,17839.3,1.51702
9350,45.6621,17896.2,1.51963
9367,45.7451,17926.1,1.52167
9384,45.8281,17931.4,1.52446
9401,45.9111,17994.1,1.52824
9418,45.9941,17998.6,1.52908
9435,46.0771,18044.7,1.53182
9452,46.1602,18066.8,1.53554
9469,46.2432,18100.9,1.539258
9486,46.3262,18149.5,1.54151
9503,46.40918,18178.4,1.54412
9520,46.4922,18197.1,1.54594
9537,46.5752,18218.4,1.5492
9554,46.6582,18269.2,1.5529
9571,46.7412,18296.4,1.5542
9588,46.8242,18321.5,1.55748
9605,46.9072,18359.7,1.5608
9622,46.9902,18372.5,1.5633
9639,47.0732,18402.9,1.56644
9656,47.15625,18430.4,1.56792
9673,47.2393,18472.4,1.57168
9690,47.3223,18523.8,1.57554
9707,47.4053,18543.8,1.5773
9724,47.4883,18565.8,1.57921
9741,47.5713,18550.8,1.583299
9758,47.6543,18647.5,1.58651
9775,47.7373,18678.5,1.58803
9792,47.8203,18704.8,1.5909
9809,47.90332,18741.3,1.59352
9826,47.9863,18722.8,1.59546
9843,48.0693,18799.3,1.59861
9860,48.1523,18808.9,1.60138
9877,48.2354,18868.5,1.6063
9894,48.3184,18903.9,1.60764
9911,48.4014,18913.1,1.61034
9928,48.4844,18960.7,1.61189
9945,48.5674,18966.6,1.61549
9962,48.6504,19006.3,1.62061
9979,48.7334,19058.4,1.62167
9996,48.8164,19072.5,1.62404
10013,48.8994,19126.9,1.6286
10030,48.9824,19112.5,1.630049
10047,49.06543,19179.3,1.63324
10064,49.1484,19210.8,1.6347
10081,49.2314,19233.7,1.63903
10098,49.3145,19267.1,1.64223
10115,49.3975,19263.6,1.642642
10132,49.4805,19328.7,1.64666
10149,49.5635,19331.1,1.64809
10166,49.6465,19392.9,1.65189
10183,49.7295,19425.5,1.65532
10200,49.8125,19451.1,1.657
10217,49.8955,19489.5,1.66106
10234,49.9785,19493.3,1.66171
10251,50.0615,19549.6,1.666554
10268,50.1445,19583.6,1.66965
10285,50.2275,19605.4,1.67159
10302,50.3105,19637.5,1.67523
10319,50.3936,19649.1,1.67604
10336,50.4766,19692.4,1.67921
10353,50.55957,19728.2,1.68046
10370,50.6426,19757.8,1.686034
10387,50.7256,19793.6,1.68798
10404,50.8086,19819.2,1.689502
10421,50.8916,19859.8,1.69401
10438,50.9746,19846.3,1.69511
10455,51.0576,19916.8,1.69942
10472,51.1406,19955.4,1.70198
10489,51.2236,19981.7,1.70644
10506,51.3066,20024.5,1.70778
10523,51.3896,20012.9,1.70813
10540,51.4727,20062.6,1.71291
10557,51.5557,20097.1,1.71449
10574,51.6387,20135.1,1.71784
10591,51.72168,20161.8,1.72084
10608,51.8047,20189.1,1.72356
10625,51.8877,20223.9,1.72594
10642,51.9707,20235.9,1.72928
10659,52.0537,20275.7,1.73286
10676,52.1367,20323.1,1.73571
10693,52.2197,20352.3,1.7393
10710,52.3027,20388.2,1.74112
10727,52.3857,20394.4,1.74181
10744,52.46875,20446.1,1.74634
10761,52.5518,20452,1.74874
10778,52.6348,20503.7,1.75229
10795,52.7178,20536.4,1.75388
10812,52.8008,20562,1.75579
10829,52.8838,20605.2,1.76115
10846,52.9668,20620.5,1.76253
10863,53.0498,20667.5,1.76572
10880,53.1328,20692.3,1.76871
10897,53.2158,20717.6,1.77104
10914,53.2988,20757,1.77359
10931,53.3818,20745.3,1.77538
10948,53.4648,20815,1.7787
10965,53.5479,20850,1.78245
10982,53.6309,20882.4,1.78508
10999,53.7139,20914.9,1.78692
11016,53.7969,20906.1,1.78999
11033,53.8799,20961.4,1.79285
11050,53.9629,20992.5,1.7957
11067,54.0459,21028.3,1.79926
11084,54.1289,21072.5,1.80325
11101,54.2119,21085.3,1.80328
11118,54.2949,21125.9,1.80843
11135,54.3779,21126.2,1.80928
11152,54.4609,21175.8,1.81328
11169,54.5439,21223.5,1.81619
11186,54.627,21235.3,1.81774
11203,54.71,21278.5,1.82133
11220,54.793,21259,1.82334
11237,54.876,21324,1.82681
11254,54.959,21353.5,1.82824
11271,55.042,21392.5,1.8329
11288,55.125,21428.1,1.83535
11305,55.208,21433.2,1.83727
11322,55.291,21490.5,1.84139
11339,55.374,21492.2,1.84248
11356,55.457,21540.1,1.84685
11373,55.54,21574.8,1.84969
11390,55.623,21592.6,1.85115
11407,55.7061,21645.2,1.85249
11424,55.7891,21633.2,1.855
11441,55.8721,21702.1,1.860196
11458,55.9551,21730.5,1.86361
11475,56.0381,21767.6,1.86726
11492,56.1211,21808.4,1.86685
11509,56.2041,21819.1,1.8696
11526,56.2871,21868.1,1.87402
11543,56.3701,21871.5,1.8751
11560,56.4531,21914.8,1.87932
11577,56.5361,21949.5,1.88092
11594,56.6191,21972,1.88644
11611,56.7021,22010.4,1.88836
11628,56.7852,22014,1.88875
11645,56.8682,22056.9,1.89122
11662,56.9512,22091.6,1.89647
11679,57.0342,22127.2,1.89759
11696,57.1172,22165,1.9017
11713,57.2002,22169,1.90208
11730,57.2832,22218.3,1.90654
11747,57.3662,22237.2,1.908
11764,57.4492,22280.7,1.91102
11781,57.5322,22317.5,1.91445
11798,57.6152,22344.7,1.91756
11815,57.6982,22388.1,1.92121
11832,57.78125,22365.9,1.92045
11849,57.8643,22433.5,1.92489
11866,57.9473,22470.2,1.92747
11883,58.0303,22485.5,1.930781
11900,58.1133,22533.3,1.93517
11917,58.1963,22541.2,1.93397
11934,58.2793,22585.2,1.93961
11951,58.3623,22616,1.94147
11968,58.4453,22649.7,1.94476
11985,58.5283,22689.3,1.94958
12002,58.6113,22704.9,1.94981
12019,58.6943,22740,1.9529
12036,58.7773,22762.8,1.95418
12053,58.8604,22799.9,1.95792
12070,58.9434,22843.2,1.96348
12087,59.0264,22867.1,1.96297
12104,59.1094,22906.4,1.9679
12121,59.1924,22900.1,1.96763
12138,59.2754,22949.1,1.97204
12155,59.3584,22990.6,1.97456
12172,59.4414,23012.8,1.9777
12189,59.5244,23056.5,1.98234
12206,59.6074,23065.2,1.98303
12223,59.6904,23114.5,1.98731
12240,59.7734,23124.7,1.98868
12257,59.8564,23175.7,1.99264
12274,59.9395,23211,1.99567
12291,60.0225,23236.1,1.99831
12308,60.1055,23274.7,1.99957
12325,60.1885,23237.3,2.00305
12342,60.2715,23319.5,2.00519
12359,60.3545,23363.6,2.00953
12376,60.4375,23393.4,2.01126
12393,60.5205,23439.8,2.01558
12410,60.6035,23455.5,2.01771
12427,60.6865,23487.6,2.02165
12444,60.7695,23515.1,2.0222
12461,60.8525,23553.3,2.02702
12478,60.9355,23589.1,2.03034
12495,61.0186,23613.8,2.03225
12512,61.1016,23662,2.03686
12529,61.1846,23670.8,2.03723
12546,61.2676,23702.7,2.042047
12563,61.3506,23746,2.04529
12580,61.4336,23765.9,2.04629
12597,61.5166,23818.3,2.05071
12614,61.5996,23797.5,2.05155
12631,61.6826,23861.6,2.05522
12648,61.7656,23892.3,2.057714
12665,61.8486,23927.5,2.06151
12682,61.9316,23960.7,2.06418
12699,62.0146,23985.4,2.06786
12716,62.0977,24030.5,2.07058
12733,62.1807,24039,2.07015
12750,62.2637,24066.6,2.07435
12767,62.3467,24112.7,2.07841
12784,62.4297,24112.5,2.08072
12801,62.5127,24182.2,2.08454
12818,62.5957,24147.4,2.0843
12835,62.6787,24222.9,2.08876
12852,62.7617,24246.9,2.09049
12869,62.8447,24253.4,2.09476
12886,62.9277,24313,2.09597
12903,63.0107,24330.8,2.09842
12920,63.09375,24377.5,2.10267
12937,63.1768,24363,2.10475
12954,63.2598,24407.1,2.10692
12971,63.3428,24459.8,2.10905
12988,63.4258,24486.4,2.11158
13005,63.5088,24518.1,2.11633
13022,63.5918,24506.9,2.11657
13039,63.6748,24568.4,2.11988
13056,63.7578,24601.3,2.12447
13073,63.8408,24632,2.12692
13090,63.9238,24672.3,2.13025
13107,64.0068,24691.1,2.131995
13124,64.0898,24727,2.133709
13141,64.1729,24741.3,2.13696
13158,64.2559,24759,2.14044
13175,64.3389,24819.5,2.143295
13192,64.4219,24842.3,2.14389
13209,64.5049,24881.2,2.14867
13226,64.5879,24872.2,2.14975
13243,64.6709,24914.2,2.15201
13260,64.7539,24955.5,2.15588
13277,64.8369,24979.1,2.16067
13294,64.9199,25020,2.16252
13311,65.00293,25020.2,2.16371
13328,65.0859,25083,2.1678
13345,65.1689,25090.9,2.17015
13362,65.252,25131.7,2.17243
13379,65.335,25164.7,2.17597
13396,65.418,25171.7,2.17808
13413,65.501,25228.3,2.18146
13430,65.584,25240.9,2.18279
13447,65.667,25271.8,2.18738
13464,65.75,25317.7,2.1887
13481,65.833,25331.6,2.1908
13498,65.916,25383,2.19619
13515,65.999,25385.2,2.19478
13532,66.082,25423.6,2.20017
13549,66.165,25455,2.20457
13566,66.248,25470.5,2.20587
13583,66.3311,25535.4,2.20883
13600,66.4141,25539.4,2.20968
13617,66.49707,25591.8,2.21571
13634,66.5801,25601.2,2.21604
13651,66.6631,25620.7,2.21976
13668,66.7461,25680,2.22155
13685,66.8291,25704.6,2.225723
13702,66.9121,25734.9,2.22802
13719,66.9951,25729.6,2.2293
13736,67.0781,25790.4,2.233
13753,67.1611,25819.8,2.23705
13770,67.2441,25848.8,2.2384
13787,67.3271,25886.2,2.24317
13804,67.4102,25910.5,2.24412
13821,67.4932,25939.3,2.24781
13838,67.5762,25967.8,2.249836
13855,67.65918,25996.2,2.25169
13872,67.7422,26038.3,2.25485
13889,67.8252,26039.5,2.25747
13906,67.9082,26091.7,2.26148
13923,67.9912,26111.3,2.26381
13940,68.0742,26140,2.26531
13957,68.1572,26170.3,2.26964
13974,68.2402,26203,2.272321
13991,68.3232,26255.4,2.276001
14008,68.40625,26269.4,2.27809
14025,68.4893,26289.2,2.28098
14042,68.5723,26321.7,2.28441
14059,68.6553,26358.1,2.286314
14076,68.7383,26400.1,2.2893
14093,68.8213,26396.6,2.29184
14110,68.9043,26456.8,2.29574
14127,68.9873,26474.9,2.29665
14144,69.0703,26488.7,2.29818
14161,69.15332,26526.3,2.30267
14178,69.2363,26561.3,2.30672
14195,69.3193,26610.1,2.3097
14212,69.4023,26604.8,2.308943
14229,69.4854,26661,2.314074
14246,69.5684,26673.8,2.317
14263,69.6514,26698.5,2.31747
14280,69.7344,26750.1,2.32269
14297,69.8174,26773.8,2.3248
14314,69.9004,26805.2,2.32928
14331,69.9834,26830.3,2.329021
14348,70.0664,26849.9,2.33255
14365,70.1494,26888.7,2.33626
14382,70.2324,26901.4,2.33795
14399,70.31543,26949.3,2.340821
14416,70.3984,26964.1,2.34333
14433,70.4814,27002.5,2.34763
14450,70.5645,27045.2,2.34943
14467,70.6475,27061.8,2.35026
14484,70.7305,27105.1,2.35524
14501,70.8135,27117.8,2.35676
14518,70.8965,27153.1,2.36082
14535,70.9795,27178.7,2.36321
14552,71.0625,27198,2.36584
14569,71.1455,27245.3,2.36834
14586,71.2285,27270,2.37128
14603,71.3115,27304.7,2.37541
14620,71.3945,27318.9,2.377459
14637,71.4775,27332.8,2.38078
14654,71.5605,27391.6,2.38229
14671,71.6436,27411.3,2.3857
14688,71.7266,27462.2,2.38949
14705,71.80957,27487.4,2.3925
14722,71.8926,27497.2,2.39446
14739,71.9756,27532.3,2.39542
14756,72.0586,27558.8,2.39934
14773,72.1416,27608.8,2.40323
14790,72.2246,27630.1,2.40583
14807,72.3076,27677.9,2.40863
14824,72.3906,27703.8,2.41057
14841,72.4736,27708.4,2.41327
14858,72.5566,27747.2,2.41586
14875,72.6396,27774.9,2.41844
14892,72.7227,27827.7,2.42281
14909,72.8057,27837.7,2.42445
14926,72.8887,27875.4,2.42733
14943,72.97168,27905.3,2.42947
14960,73.0547,27922.9,2.43313
14977,73.1377,27967.2,2.437242
14994,73.2207,27983.5,2.43752
15011,73.3037,28021.4,2.44017
15028,73.3867,28047.6,2.44266
15045,73.4697,28059.2,2.44644
15062,73.5527,28103.4,2.44995
15079,73.6357,28110.5,2.45108
15096,73.71875,28167.4,2.45481
15113,73.8018,28175.6,2.456461
15130,73.8848,28184.8,2.45982
15147,73.9678,28240.8,2.46367
15164,74.0508,28277.8,2.46625
15181,74.1338,28311.9,2.47059
15198,74.2168,28315.2,2.47074
15215,74.2998,28363.5,2.47437
15232,74.3828,28392.4,2.47758
15249,74.46582,28395.6,2.47838
15266,74.5488,28457.7,2.48275
15283,74.6318,28458.9,2.48524
15300,74.7148,28511,2.48791
15317,74.7979,28539.7,2.49001
15334,74.8809,28548.7,2.4936
15351,74.9639,28595.1,2.49682
15368,75.0469,28620.4,2.49813
15385,75.1299,28665.1,2.5023
15402,75.2129,28683.9,2.50491
15419,75.2959,28709.6,2.50683
15436,75.3789,28737.2,2.509058
15453,75.4619,28756.1,2.51202
15470,75.5449,28813.5,2.5162
15487,75.62793,28828.1,2.51949
15504,75.7109,28866.9,2.520479
15521,75.7939,28889.5,2.523406
15538,75.877,28883,2.52667
15555,75.96,28939.4,2.52917
15572,76.043,28959.5,2.532269
15589,76.126,29016.4,2.53586
15606,76.209,29027.5,2.53626
15623,76.292,29053.7,2.53996
15640,76.375,29070.9,2.54158
15657,76.458,29096.6,2.54571
15674,76.541,29149.1,2.5495
15691,76.624,29173.3,2.55155
15708,76.707,29209.4,2.55368
15725,76.79,29238.6,2.55704
15742,76.873,29241.6,2.56001
15759,76.9561,29290.8,2.56215
15776,77.0391,29319.1,2.56494
15793,77.12207,29359.4,2.56903
15810,77.2051,29378.9,2.57046
15827,77.2881,29396,2.57219
15844,77.3711,29437,2.57501
15861,77.4541,29458.8,2.57931
15878,77.5371,29503.3,2.58386
15895,77.6201,29527.8,2.58363
15912,77.7031,29555.2,2.58745
15929,77.7861,29583.8,2.58942
15946,77.8691,29597.4,2.59299
15963,77.9521,29648.6,2.5958
15980,78.0352,29666.4,2.59772
15997,78.1182,29701,2.60236
16014,78.2012,29730.5,2.6042
16031,78.28418,29745.5,2.60591
16048,78.3672,29798.6,2.60944
16065,78.4502,29817.7,2.6118
16082,78.5332,29850.3,2.6152
16099,78.6162,29873.8,2.61776
16116,78.6992,29904.4,2.61981
16133,78.7822,29945.8,2.62437
16150,78.8652,29969.4,2.626394
16167,78.9482,30008.7,2.6299
16184,79.03125,30034.6,2.63192
16201,79.1143,30060.6,2.636328
16218,79.1973,30090.8,2.63627
16235,79.2803,30096,2.64052
16252,79.3633,30155.5,2.64325
16269,79.4463,30174.1,2.64591
16286,79.5293,30218.8,2.65088
16303,79.6123,30238.2,2.65078
16320,79.6953,30257.3,2.65498
16337,79.77832,30291.7,2.656847
16354,79.8613,30304.4,2.65833
16371,79.9443,30351.6,2.6614
16388,80.0273,30387.7,2.66654
16405,80.1104,30405.9,2.66685
16422,80.1934,30433.9,2.67161
16439,80.2764,30454,2.67232
16456,80.3594,30475.6,2.67522
16473,80.4424,30504.9,2.67734
16490,80.5254,30551.5,2.68296
16507,80.6084,30584.5,2.683593
16524,80.6914,30601.2,2.68713
16541,80.7744,30637.1,2.69117
16558,80.8574,30649.4,2.69377
16575,80.94043,30694.3,2.69468
16592,81.0234,30727.1,2.69876
16609,81.1064,30746.5,2.70192
16626,81.1895,30772.8,2.70445
16643,81.2725,30769.8,2.70671
16660,81.3555,30838.6,2.70922
16677,81.4385,30860.1,2.712
16694,81.5215,30888,2.71584
16711,81.6045,30930.3,2.71907
16728,81.6875,30924.8,2.71861
16745,81.7705,30973.6,2.7223
16762,81.8535,30980,2.72485
16779,81.9365,31037.1,2.72907
16796,82.0195,31069.2,2.73107
16813,82.1025,31087.4,2.73246
16830,82.1855,31106,2.73704
16847,82.2686,31117,2.73915
16864,82.3516,31182.8,2.74287
16881,82.43457,31196.9,2.74487
16898,82.5176,31235,2.74796
16915,82.6006,31263.5,2.75027
16932,82.6836,31267.9,2.75263
16949,82.7666,31325.5,2.75595
16966,82.8496,31337.5,2.75868
16983,82.9326,31377.8,2.76066
17000,83.0156,31406.1,2.76404
17017,83.0986,31422.4,2.76715
17034,83.1816,31450.4,2.7686
17051,83.2646,31460.7,2.77191
17068,83.3477,31525.2,2.77525
17085,83.4307,31549.9,2.77799
17102,83.5137,31576.8,2.78103
17119,83.59668,31615.3,2.78256
17136,83.6797,31622.3,2.78713
17153,83.7627,31665.7,2.78944
17170,83.8457,31691.6,2.79057
17187,83.9287,31725.7,2.795553
17204,84.0117,31755.2,2.79686
17221,84.0947,31773.2,2.80098
17238,84.1777,31802.4,2.80304
17255,84.2607,31813.8,2.8044
17272,84.34375,31879.5,2.808042
17289,84.4268,31898.8,2.81173
17306,84.5098,31925.5,2.81224
17323,84.5928,31954.7,2.8162
17340,84.6758,31964.1,2.81803
17357,84.7588,32007.3,2.8214
17374,84.8418,32030.3,2.82409
17391,84.9248,32072.3,2.827229
17408,85.0078,32105.5,2.830832
17425,85.09082,32080.5,2.83176
17442,85.1738,32149.2,2.83688
17459,85.2568,32162.5,2.83779
17476,85.3398,32213.2,2.84153
17493,85.4229,32241.2,2.844481
17510,85.5059,32258.9,2.84686
17527,85.5889,32304.7,2.85016
17544,85.6719,32317,2.85047
17561,85.7549,32358.1,2.85505
17578,85.8379,32364.7,2.85751
17595,85.9209,32419.6,2.86188
17612,86.0039,32451.8,2.8643
17629,86.0869,32455.6,2.86586
17646,86.1699,32497.7,2.86954
17663,86.25293,32515.6,2.87216
17680,86.3359,32554.9,2.87444
17697,86.4189,32584.4,2.87725
17714,86.502,32609.6,2.87995
17731,86.585,32629.6,2.88217
17748,86.668,32655,2.88385
17765,86.751,32692.8,2.88849
17782,86.834,32725.6,2.89291
17799,86.917,32753.3,2.89308
17816,87.0,32783.6,2.89637
17833,87.083,32806.7,2.89876
17850,87.166,32829.2,2.90281
17867,87.249,32875.2,2.90562
17884,87.332,32912.7,2.90831
17901,87.415,32926.7,2.91091
17918,87.498,32956.1,2.91226
17935,87.5811,32978.9,2.91585
17952,87.6641,33006,2.91841
17969,87.74707,33044.2,2.92059
17986,87.8301,33082.4,2.9241
18003,87.9131,33109.8,2.92631
18020,87.9961,33138,2.92985
18037,88.0791,33165.7,2.93329
18054,88.1621,33178.6,2.936223
18071,88.2451,33227.5,2.93962
18088,88.3281,33243,2.940917
18105,88.4111,33278.2,2.94462
18122,88.4941,33263.7,2.94594
18139,88.5771,33321.6,2.94936
18156,88.6602,33345.7,2.95297
18173,88.7432,33363.2,2.95359
18190,88.8262,33419.2,2.95722
18207,88.90918,33438,2.96045
18224,88.9922,33465.9,2.9631
18241,89.0752,33477.6,2.96522
18258,89.1582,33520.1,2.9687
18275,89.2412,33550.1,2.97166
18292,89.3242,33568.8,2.97282
18309,89.4072,33605.8,2.97789
18326,89.4902,33614.9,2.97906
18343,89.5732,33656.3,2.98304
18360,89.65625,33698,2.98604
18377,89.7393,33719.8,2.98929
18394,89.8223,33746.2,2.990612
18411,89.9053,33774.9,2.99376
18428,89.9883,33809.8,2.99465
18445,90.0713,33827.9,2.9989
18462,90.1543,33850.5,3.00207
18479,90.2373,33891.7,3.00462
18496,90.3203,33900.5,3.00639
18513,90.40332,33949.8,3.01001
18530,90.4863,33964.8,3.01085
18547,90.5693,33987.8,3.01487
18564,90.6523,34036.6,3.01753
18581,90.7354,34053.2,3.02168
18598,90.8184,34082.4,3.02288
18615,90.9014,34105.1,3.02573
18632,90.9844,34126,3.02893
18649,91.0674,34158.7,3.03037
18666,91.1504,34186.4,3.03589
18683,91.2334,34234.7,3.03688
18700,91.3164,34250.8,3.03985
18717,91.3994,34286.5,3.04325
18734,91.4824,34305.6,3.04538
18751,91.56543,34313.9,3.04804
18768,91.6484,34372.7,3.04988
18785,91.7314,34400.1,3.05552
18802,91.8145,34430.5,3.05824
18819,91.8975,34425.5,3.05846
18836,91.9805,34474,3.06234
18853,92.0635,34503.2,3.06633
18870,92.1465,34528.8,3.06766
18887,92.2295,34561,3.071209
18904,92.3125,34590.8,3.07317
18921,92.3955,34618.1,3.07688
18938,92.4785,34639.9,3.07879
18955,92.5615,34662.8,3.08266
18972,92.6445,34711,3.084028
18989,92.7275,34722.3,3.0879
19006,92.8105,34754.9,3.09008
19023,92.8936,34780,3.09257
19040,92.9766,34807,3.09552
19057,93.05957,34836.9,3.09893
19074,93.1426,34850,3.101
19091,93.2256,34900.2,3.10407
19108,93.3086,34910.5,3.10542
19125,93.3916,34957,3.10846
19142,93.4746,34975,3.11166
19159,93.5576,35004.8,3.11395
19176,93.6406,35039.2,3.11668
19193,93.7236,35053.3,3.11978
19210,93.8066,35087.6,3.1227
19227,93.8896,35123.4,3.12539
19244,93.9727,35129.6,3.12717
19261,94.0557,35169.5,3.13063
19278,94.1387,35190.1,3.13337
19295,94.22168,35223.5,3.13731
19312,94.3047,35245.7,3.13883
19329,94.3877,35290.5,3.14202
19346,94.4707,35287,3.14447
19363,94.5537,35330.6,3.14837
19380,94.6367,35371.7,3.15094
19397,94.7197,35375.1,3.15295
19414,94.8027,35428.1,3.15662
19431,94.8857,35445,3.15867
19448,94.96875,35464.2,3.16003
19465,95.0518,35509.7,3.16543
19482,95.1348,35519.7,3.16606
19499,95.2178,35564.8,3.172153
19516,95.3008,35586.4,3.17226
19533,95.3838,35604,3.17585
19550,95.4668,35635.6,3.17879
19567,95.5498,35666.6,3.18152
19584,95.6328,35706,3.18443
19601,95.71582,35716.5,3.18648
19618,95.7988,35752.3,3.18888
19635,95.8818,35778.5,3.19287
19652,95.9648,35803.3,3.19399
19669,96.0479,35838.3,3.197304
19686,96.1309,35864.5,3.20054
19703,96.2139,35902.5,3.20343
19720,96.2969,35922.5,3.2058
19737,96.3799,35944.4,3.20895
19754,96.4629,35970,3.21232
19771,96.5459,35984,3.21248
19788,96.6289,36048.7,3.21742
19805,96.7119,36053.6,3.21912
19822,96.7949,36081,3.2227
19839,96.87793,36112.7,3.22436
19856,96.9609,36141.2,3.226861
19873,97.0439,36166.9,3.232017
19890,97.127,36190.4,3.23384
19907,97.21,36232,3.2373
19924,97.293,36256.3,3.23901
19941,97.376,36269.9,3.2412
19958,97.459,36297.5,3.2452
19975,97.542,36316,3.247371
19992,97.625,36363,3.25005
20009,97.708,36388.8,3.25428
20026,97.791,36420.2,3.25601
20043,97.874,36437.4,3.25856
20060,97.957,36442.9,3.26076
20077,98.04,36495.4,3.26404
20094,98.123,36512.7,3.26689
20111,98.2061,36560.4,3.26989
20128,98.2891,36578.3,3.2715
20145,98.37207,36580.8,3.27406
20162,98.4551,36629.4,3.27951
20179,98.5381,36658.5,3.28187
20196,98.6211,36696.2,3.2841
20213,98.7041,36706.7,3.28589
20230,98.7871,36740,3.28882
20247,98.8701,36771.6,3.29196
20264,98.9531,36786.5,3.29328
20281,99.0361,36827.1,3.29948
20298,99.1191,36835.1,3.29996
20315,99.2021,36875.3,3.30247
20332,99.2852,36904.4,3.3054
20349,99.3682,36904.1,3.30777
20366,99.4512,36949.9,3.31137
20383,99.53418,36972.1,3.31251
20400,99.6172,37003.7,3.31677
20417,99.7002,37022.9,3.31873
20434,99.7832,37051.2,3.32274
20451,99.8662,37087.1,3.32459
20468,99.9492,37104.8,3.32585
20485,100.032,37147.7,3.33163
20502,100.115,37177.1,3.33351
20519,100.198,37212.8,3.33718
20536,100.281,37219.2,3.337646
20553,100.364,37240.8,3.34143
20570,100.447,37278.3,3.34447
20587,100.53,37293.8,3.34799
20604,100.613,37342.3,3.34853
20621,100.696,37355,3.3523
20638,100.7793,37371.5,3.35586
20655,100.8623,37404.4,3.35854
20672,100.945,37428.7,3.3611
20689,101.028,37472.9,3.36473
20706,101.111,37491,3.36643
20723,101.194,37516,3.36983
20740,101.277,37542.8,3.37221
20757,101.36,37554.9,3.37509
20774,101.443,37596.1,3.37798
20791,101.526,37617.9,3.37953
20808,101.609,37650.3,3.3821
20825,101.692,37676.7,3.38623
20842,101.775,37694.8,3.38811
20859,101.8584,37729.8,3.39108
20876,101.941,37756,3.393311
20893,102.024,37787.6,3.39816
20910,102.107,37811.3,3.40037
20927,102.19,37828.3,3.40104
20944,102.273,37866,3.40464
20961,102.356,37889.8,3.40888
20978,102.439,37928.3,3.41141
20995,102.522,37943.8,3.41414
21012,102.605,37977.5,3.417819
21029,102.688,38002,3.41903
21046,102.771,38016.4,3.42231
21063,102.854,38064.9,3.42446
21080,102.9375,38069.8,3.4269
21097,103.021,38118.4,3.43052
21114,103.104,38131.7,3.43453
21131,103.187,38152.9,3.43593
21148,103.27,38185.8,3.43929
21165,103.353,38204.9,3.44085
21182,103.436,38239.1,3.44384
21199,103.519,38273.9,3.44699
21216,103.602,38294.8,3.449986
21233,103.685,38322.1,3.45274
21250,103.768,38338.3,3.4542
21267,103.851,38381.5,3.45961
21284,103.934,38412.1,3.46185
21301,104.0166,38427.5,3.46436
21318,104.1,38446.3,3.46661
21335,104.183,38459.5,3.46883
21352,104.266,38504.7,3.47105
21369,104.349,38528.8,3.47513
21386,104.432,38555.3,3.4782
21403,104.515,38588.9,3.48041
21420,104.598,38605,3.482811
21437,104.681,38632.2,3.48564
21454,104.764,38623.3,3.48922
21471,104.847,38683.2,3.49168
21488,104.93,38707.1,3.493849
21505,105.0127,38732.8,3.49798
21522,105.0957,38759.8,3.50155
21539,105.179,38774.9,3.5029
21556,105.262,38812.4,3.50444
21573,105.345,38815,3.50647
21590,105.428,38864.7,3.51181
21607,105.511,38889.3,3.51306
21624,105.594,38910.5,3.51612
21641,105.677,38927.3,3.51879
21658,105.76,38965.4,3.52215
21675,105.843,38989.6,3.52449
21692,105.926,39015.3,3.5286
21709,106.009,39043,3.53124
21726,106.0918,39063.8,3.53271
21743,106.1748,39065.1,3.53549
21760,106.258,39115.6,3.53882
21777,106.341,39129.9,3.54195
21794,106.424,39163.6,3.54298
21811,106.507,39187.6,3.54678
21828,106.59,39195.3,3.54905
21845,106.673,39230.3,3.55161
21862,106.756,39254.5,3.55584
21879,106.839,39289.9,3.55728
21896,106.922,39306.6,3.56117
21913,107.005,39331.7,3.56273
21930,107.088,39359.7,3.56595
21947,107.1709,39378.6,3.56831
21964,107.254,39415.5,3.57187
21981,107.337,39438.7,3.57424
21998,107.42,39462.3,3.57799
22015,107.503,39485.3,3.5799
22032,107.586,39507.1,3.58239
22049,107.669,39531.9,3.58763
22066,107.752,39552,3.58909
22083,107.835,39584.6,3.59117
22100,107.918,39614.3,3.59373
22117,108.001,39643.9,3.5979
22134,108.084,39667.2,3.59958
22151,108.167,39681.1,3.60193
22168,108.25,39710.2,3.6061
22185,108.333,39743.3,3.60787
22202,108.416,39769.1,3.61006
22219,108.499,39790.3,3.61415
22236,108.582,39809.5,3.61649
22253,108.665,39834.3,3.61904
22270,108.748,39846.3,3.62191
22287,108.831,39889.9,3.62446
22304,108.914,39916.3,3.62727
22321,108.997,39938.2,3.62928
22338,109.08,39951.4,3.632597
22355,109.163,39979.1,3.63536
22372,109.246,40018.9,3.6385
22389,109.3291,40035,3.6405
22406,109.412,40061.5,3.64302
22423,109.495,40092.8,3.6465
22440,109.578,40102.7,3.6483
22457,109.661,40140.2,3.65113
22474,109.744,40152.9,3.65396
22491,109.827,40185.5,3.65784
22508,109.91,40213.5,3.661268
22525,109.993,40241.6,3.66274
22542,110.076,40262.8,3.66533
22559,110.159,40284.1,3.66889
22576,110.242,40319,3.67119
22593,110.3252,40348.6,3.67448
22610,110.4082,40358.7,3.67767
22627,110.491,40395,3.6801
22644,110.574,40407.2,3.68186
22661,110.657,40443.8,3.6858
22678,110.74,40458.2,3.68963
22695,110.823,40487.4,3.68988
22712,110.906,40512,3.69364
22729,110.989,40527.8,3.69605
22746,111.072,40553.2,3.698329
22763,111.155,40578.3,3.7006
22780,111.238,40623.8,3.70467
22797,111.321,40632.3,3.70684
22814,111.4043,40654.6,3.70987
22831,111.4873,40681.8,3.71157
22848,111.57,40690.2,3.71434
22865,111.653,40729.2,3.71834
22882,111.736,40759.1,3.7209
22899,111.819,40783.1,3.72311
22916,111.902,40804.9,3.72653
22933,111.985,40822.7,3.72912
22950,112.068,40846.3,3.73082
22967,112.151,40875.8,3.73347
22984,112.234,40906.3,3.73724
23001,112.317,40928.3,3.74059
23018,112.4,40950.8,3.74308
23035,112.4834,40986,3.74701
23052,112.566,40991.8,3.7472
23069,112.649,41032.3,3.7508
23086,112.732,41060.8,3.75424
23103,112.815,41077.7,3.75833
23120,112.898,41112.5,3.75948
23137,112.981,41110.9,3.76207
23154,113.064,41156.6,3.766078
23171,113.147,41180.5,3.76749
23188,113.23,41199,3.7711
23205,113.313,41228.9,3.77363
23222,113.396,41245.2,3.77596
23239,113.479,41274.7,3.77773
23256,113.5625,41300.8,3.78
23273,113.646,41333.5,3.784276
23290,113.729,41359.3,3.7884
23307,113.812,41383,3.78998
23324,113.895,41397.7,3.79163
23341,113.978,41413.3,3.79433
23358,114.061,41460.9,3.79871
23375,114.144,41477.5,3.80093
23392,114.227,41501.7,3.80302
23409,114.31,41531.7,3.806565
23426,114.393,41553.7,3.80855
23443,114.476,41572.8,3.81128
23460,114.559,41606.7,3.81579
23477,114.6416,41627.8,3.81824
23494,114.725,41652.7,3.82136
23511,114.808,41671.7,3.82266
23528,114.891,41688.2,3.82543
23545,114.974,41701.3,3.82774
23562,115.057,41737.6,3.83174
23579,115.14,41766.8,3.83399
23596,115.223,41790.4,3.83782
23613,115.306,41816.9,3.83868
23630,115.389,41812.4,3.842108
23647,115.472,41858.1,3.84477
23664,115.555,41885.4,3.84815
23681,115.6377,41917,3.85124
23698,115.7207,41945.3,3.85343
23715,115.804,41958.7,3.85527
23732,115.887,41992.4,3.85888
23749,115.97,42003.6,3.860836
23766,116.053,42039.2,3.86559
23783,116.136,42069.5,3.86855
23800,116.219,42088.9,3.8694
23817,116.302,42111.9,3.87156
23834,116.385,42137,3.875236
23851,116.468,42162.6,3.87791
23868,116.551,42193,3.8816
23885,116.634,42225,3.88453
23902,116.7168,42245.5,3.88593
23919,116.7998,42265.4,3.89054
23936,116.883,42298.3,3.89287
23953,116.966,42311.1,3.8952
23970,117.049,42343,3.89862
23987,117.132,42363.9,3.90102
24004,117.215,42393.6,3.9027
24021,117.298,42414.7,3.90539
24038,117.381,42438,3.90734
24055,117.464,42452.1,3.91116
24072,117.547,42495.3,3.91469
24089,117.63,42525.9,3.91728
24106,117.713,42543.1,3.91946
24123,117.7959,42562.8,3.92201
24140,117.879,42589.1,3.92444
24157,117.962,42613.8,3.92765
24174,118.045,42643.3,3.93172
24191,118.128,42668,3.93344
24206,118.201,6020.1,4.06396