File: ASM109_2021_data/MTS/Quasi/MTS_quasi_1.csv
,Time [s],Load [N],Displacement [mm]
0,0.0078125,-338.461,0.000963014
17,0.0908203,-228.996,0.002502901
34,0.173828,-188.18,0.00517239
51,0.256836,-169.579,0.00719771
68,0.339844,-121.292,0.01151944
85,0.422852,-110.387,0.0120621
102,0.505859,-61.7266,0.0167097
119,0.588867,-17.2795,0.0199693
136,0.671875,-8.67589,0.0209475
153,0.754883,59.8113,0.0244979
170,0.837891,88.1004,0.0273924
187,0.920898,116.419,0.0304156
204,1.00391,151.592,0.03049
221,1.08691,175.998,0.0338546
238,1.16992,224.122,0.03849471
255,1.25293,226.168,0.0400091
272,1.33594,301.41,0.0438196
289,1.41895,325.439,0.045589
306,1.50195,337.446,0.0484421
323,1.58496,391.212,0.0518253
340,1.66797,414.425,0.0535736
357,1.75098,475.057,0.0578399
374,1.83398,510.905,0.0606934
391,1.91699,537.243,0.0624534
408,2.0,556.484,0.0647968
425,2.08301,586.239,0.0667889
442,2.16602,637.767,0.0714112
459,2.24902,649.974,0.0714162
476,2.33203,706.413,0.0760797
493,2.41504,740.974,0.0784407
510,2.49805,751.302,0.0812492
527,2.58105,797.499,0.0840518
544,2.66406,837.88,0.0866833
561,2.74707,892.156,0.0907337
578,2.83008,911.208,0.09185
595,2.91309,947.87,0.0948906
612,2.99609,982.39,0.0966288
629,3.0791,997.392,0.10099
646,3.16211,1056.89,0.103383
663,3.24512,1070.88,0.106762
680,3.328125,1124.38,0.111869
697,3.41113,1161.55,0.111794
714,3.49414,1175.32,0.11419
731,3.57715,1232.42,0.116982
748,3.66016,1265.19,0.120646
765,3.74316,1309.48,0.1225701
782,3.82617,1343.64,0.125132
799,3.90918,1368.41,0.127876
816,3.99219,1405.13,0.13052
833,4.0752,1412.06,0.133842
850,4.1582,1487.2,0.136647
867,4.24121,1499.04,0.139667
884,4.32422,1560.27,0.144233
901,4.40723,1564.96,0.143407
918,4.49023,1600.28,0.147305
935,4.57324,1649.53,0.151821
952,4.65625,1679.69,0.152945
969,4.73926,1727.01,0.156247
986,4.82227,1750.64,0.158723
1003,4.90527,1767.29,0.161482
1020,4.98828,1827.59,0.166429
1037,5.07129,1834.84,0.166537
1054,5.1543,1903.42,0.170833
1071,5.2373,1923.32,0.172332
1088,5.32031,1972.4,0.176498
1105,5.40332,2003.12,0.17966
1122,5.48633,1999.2,0.180616
1139,5.56934,2073.32,0.184259
1156,5.65234,2102.19,0.185854
1173,5.73535,2146.87,0.189396
1190,5.81836,2178.34,0.193594
1207,5.90137,2182.89,0.195033
1224,5.984375,2250.8,0.198071
1241,6.06738,2270.78,0.200366
1258,6.15039,2321.59,0.203742
1275,6.2334,2348.29,0.205959
1292,6.31641,2387.83,0.207458
1309,6.39941,2428.28,0.212571
1326,6.48242,2432.19,0.214561
1343,6.56543,2484.47,0.216806
1360,6.64844,2512.82,0.219218
1377,6.73145,2570.36,0.222706
1394,6.81445,2590.82,0.224681
1411,6.89746,2611.56,0.226685
1428,6.98047,2647.69,0.229617
1445,7.06348,2688.92,0.232468
1462,7.14648,2733,0.23677
1479,7.22949,2770.79,0.238666
1496,7.3125,2801.09,0.241166
1513,7.39551,2838.86,0.24326
1530,7.47852,2838.5,0.24726
1547,7.56152,2909.01,0.251068
1564,7.64453,2934.06,0.252871
1581,7.72754,2982.12,0.255981
1598,7.81055,3010.74,0.2586571
1615,7.89355,3016.07,0.261072
1632,7.97656,3082.24,0.263089
1649,8.05957,3106.06,0.264468
1666,8.14258,3154.69,0.2696518
1683,8.22559,3184.16,0.272873
1700,8.30859,3215.07,0.274798
1717,8.3916,3243.35,0.277392
1734,8.47461,3269.19,0.279808
1751,8.55762,3318.34,0.285372
1768,8.640625,3345.65,0.285662
1785,8.72363,3390.77,0.288796
1802,8.80664,3412.9,0.290967
1819,8.88965,3429.94,0.293886
1836,8.97266,3495.87,0.296833
1853,9.05566,3511.89,0.2978442
1870,9.13867,3547.49,0.30513
1887,9.22168,3570.21,0.305519
1904,9.30469,3622.55,0.308067
1921,9.3877,3652.95,0.310276
1938,9.4707,3659.32,0.312449
1955,9.55371,3735.14,0.318196
1972,9.63672,3757.62,0.3196623
1989,9.71973,3796.7,0.321873
2006,9.80273,3822.49,0.32393
2023,9.88574,3835.05,0.326386
2040,9.96875,3896.51,0.330627
2057,10.0518,3916.16,0.332404
2074,10.1348,3964.42,0.336954
2091,10.2178,3990.62,0.339058
2108,10.3008,3996.06,0.341378
2125,10.3838,4047.21,0.344017
2142,10.4668,4039.8,0.345781
2159,10.5498,4131.34,0.349534
2176,10.6328,4163.39,0.352395
2193,10.7158,4192.41,0.354237
2210,10.7988,4229.05,0.357963
2227,10.8818,4257.86,0.360199
2244,10.9648,4305.66,0.363686
2261,11.0479,4338.28,0.364637
2278,11.1309,4367.37,0.369047
2295,11.2139,4403.57,0.371896
2312,11.2969,4415.5,0.373815
2329,11.3799,4471.06,0.37708
2346,11.4629,4485.79,0.378473
2363,11.5459,4538.87,0.383509
2380,11.6289,4574.4,0.3863
2397,11.7119,4595.03,0.386639
2414,11.7949,4641.19,0.39076
2431,11.8779,4654,0.392441
2448,11.9609,4690.17,0.396518
2465,12.0439,4746.47,0.398783
2482,12.127,4778.54,0.401525
2499,12.21,4814.23,0.40635
2516,12.293,4815.19,0.406165
2533,12.376,4878.36,0.409896
2550,12.459,4908.64,0.413472
2567,12.542,4936.94,0.417691
2584,12.625,4986.58,0.419266
2601,12.708,5009.51,0.421906
2618,12.791,5060.46,0.424346
2635,12.874,5064.38,0.426124
2652,12.957,5117.5,0.431349
2669,13.04,5156.84,0.432998
2686,13.123,5175.78,0.43562
2703,13.2061,5218.81,0.43803
2720,13.2891,5224.58,0.440638
2737,13.37207,5290.52,0.44448
2754,13.4551,5324.49,0.445935
2771,13.5381,5356.41,0.450824
2788,13.6211,5395.7,0.4521803
2805,13.7041,5400.14,0.45346
2822,13.7871,5465.51,0.458016
2839,13.8701,5458.78,0.459991
2856,13.9531,5530.65,0.462402
2873,14.0361,5564.84,0.466256
2890,14.1191,5572.96,0.467549
2907,14.2021,5618.43,0.4713718
2924,14.2852,5630.56,0.472714
2941,14.3682,5688.29,0.476336
2958,14.4512,5724.39,0.480195
2975,14.53418,5756.35,0.482935
2992,14.6172,5775.54,0.484339
3009,14.7002,5765.99,0.486536
3026,14.7832,5838.31,0.491214
3043,14.8662,5867.71,0.492486
3060,14.9492,5924.56,0.497619
3077,15.0322,5957.52,0.497284
3094,15.1152,5973.35,0.502274
3111,15.1982,6017.85,0.504182
3128,15.28125,6029.01,0.505877
3145,15.3643,6092.13,0.508275
3162,15.4473,6123.22,0.513309
3179,15.5303,6160.64,0.515178
3196,15.6133,6198.47,0.5172686
3213,15.6963,6208.77,0.5209288
3230,15.7793,6235.12,0.524629
3247,15.8623,6274.04,0.52739
3264,15.9453,6320.38,0.529691
3281,16.02832,6364.28,0.53218
3298,16.1113,6361.09,0.5344336
3315,16.1943,6427.29,0.539423
3332,16.2773,6438.67,0.540267
3349,16.3604,6495.34,0.54394
3366,16.4434,6518.54,0.546889
3383,16.5264,6557.18,0.547721
3400,16.6094,6592.71,0.5510298
3417,16.6924,6584.95,0.553773
3434,16.7754,6651.86,0.55856
3451,16.8584,6686.4,0.559937
3468,16.9414,6718.12,0.562202
3485,17.0244,6759.3,0.5648582
3502,17.1074,6742.58,0.567927
3519,17.19043,6823.94,0.571752
3536,17.2734,6830.25,0.573613
3553,17.3564,6891.12,0.575395
3570,17.4395,6926.5,0.579946
3587,17.5225,6951.98,0.580754
3604,17.6055,6988.54,0.584857
3621,17.6885,6991.04,0.58651
3638,17.7715,7044.72,0.591163
3655,17.8545,7084.45,0.5933286
3672,17.9375,7106.18,0.595491
3689,18.0205,7154.16,0.597457
3706,18.1035,7141.75,0.599712
3723,18.1865,7207.56,0.604288
3740,18.2695,7252.9,0.606504
3757,18.3525,7281.48,0.609581
3774,18.4355,7325.4,0.611733
3791,18.5186,7339.62,0.615691
3808,18.6016,7392.27,0.618409
3825,18.68457,7385.83,0.618572
3842,18.7676,7430.45,0.624687
3859,18.8506,7480.25,0.626326
3876,18.9336,7511.68,0.628859
3893,19.0166,7559.04,0.633098
3910,19.0996,7543.68,0.634746
3927,19.1826,7595.58,0.637606
3944,19.2656,7643.13,0.639363
3961,19.3486,7667.63,0.64363
3978,19.4316,7715.74,0.646149
3995,19.5146,7733.87,0.648546
4012,19.5977,7779.38,0.650792
4029,19.6807,7784.4,0.652014
4046,19.7637,7839.81,0.656721
4063,19.84668,7870.09,0.659781
4080,19.9297,7897.38,0.662418
4097,20.0127,7946.76,0.6653775
4114,20.0957,7952.9,0.666316
4131,20.1787,7990.22,0.670338
4148,20.2617,8030.59,0.672629
4165,20.3447,8070.23,0.676822
4182,20.4277,8105.07,0.680945
4199,20.5107,8103.92,0.681274
4216,20.59375,8161.21,0.684162
4233,20.6768,8163.35,0.686801
4250,20.7598,8226.15,0.690407
4267,20.8428,8262.2,0.692447
4284,20.9258,8295,0.695612
4301,21.0088,8335.31,0.698051
4318,21.0918,8338.17,0.69883
4335,21.1748,8388.33,0.704196
4352,21.2578,8420.81,0.706943
4369,21.34082,8456.64,0.708354
4386,21.4238,8501.33,0.713962
4403,21.5068,8493.16,0.713233
4420,21.5898,8563.64,0.717665
4437,21.6729,8583.18,0.718755
4454,21.7559,8623.92,0.722554
4471,21.8389,8646.87,0.726511
4488,21.9219,8658.16,0.727277
4505,22.0049,8720.96,0.7308479
4522,22.0879,8726.73,0.73247
4539,22.1709,8781.95,0.737569
4556,22.2539,8814.36,0.737879
4573,22.3369,8844.93,0.741019
4590,22.4199,8876.3,0.745505
4607,22.50293,8870.16,0.745935
4624,22.5859,8949.12,0.751316
4641,22.6689,8974.96,0.751593
4658,22.752,9006.42,0.757555
4675,22.835,9041.51,0.759284
4692,22.918,9067.23,0.76066
4709,23.001,9116.1,0.764986
4726,23.084,9114.09,0.767419
4743,23.167,9173.22,0.77013
4760,23.25,9210.3,0.7729063
4777,23.333,9228.4,0.776107
4794,23.416,9283.94,0.779423
4811,23.499,9261.27,0.780443
4828,23.582,9327.11,0.784373
4845,23.665,9377.68,0.786719
4862,23.748,9417.6,0.788825
4879,23.8311,9447.51,0.792286
4896,23.9141,9457.07,0.793764
4913,23.99707,9504.93,0.7977922
4930,24.0801,9530.77,0.799586
4947,24.1631,9570.89,0.803614
4964,24.2461,9614.31,0.8066
4981,24.3291,9621.57,0.807448
4998,24.4121,9680.55,0.813579
5015,24.4951,9671,0.814976
5032,24.5781,9712.5,0.818051
5049,24.6611,9768.22,0.818246
5066,24.7441,9800.34,0.823196
5083,24.8271,9838.2,0.826422
5100,24.9102,9854.31,0.827015
5117,24.9932,9902.34,0.830397
5134,25.0762,9920.55,0.832515
5151,25.15918,9954.99,0.836881
5168,25.2422,9984.87,0.838289
5185,25.3252,10023,0.84186
5202,25.4082,10062.6,0.844794
5219,25.4912,10066.8,0.846176
5236,25.5742,10102.5,0.850923
5253,25.6572,10149.9,0.8521
5270,25.7402,10168,0.857689
5287,25.8232,10222.6,0.857649
5304,25.90625,10224,0.860501
5321,25.9893,10279.3,0.864052
5338,26.0723,10306.5,0.867205
5355,26.1553,10321.5,0.870548
5372,26.2383,10397,0.87332
5389,26.3213,10412.8,0.873499
5406,26.4043,10456.1,0.87899
5423,26.4873,10447.8,0.879319
5440,26.5703,10496.7,0.882817
5457,26.65332,10545.4,0.886047
5474,26.7363,10563.1,0.889237
5491,26.8193,10607.8,0.892205
5508,26.9023,10590,0.893562
5525,26.9854,10666.7,0.89644
5542,27.0684,10695.8,0.899331
5559,27.1514,10719.4,0.903212
5576,27.2344,10766.5,0.905161
5593,27.3174,10789.4,0.905839
5610,27.4004,10822,0.910917
5627,27.4834,10853,0.914151
5644,27.5664,10891.4,0.914683
5661,27.6494,10935.8,0.917973
5678,27.7324,10955.3,0.923818
5695,27.81543,10993,0.925446
5712,27.8984,11016.2,0.92695
5729,27.9814,11055.8,0.930415
5746,28.0645,11095.9,0.933818
5763,28.1475,11112.5,0.935865
5780,28.2305,11177.8,0.941016
5797,28.3135,11190.5,0.941426
5814,28.3965,11230.3,0.946299
5831,28.4795,11249.1,0.946591
5848,28.5625,11277.6,0.950763
5865,28.6455,11328,0.953774
5882,28.7285,11326.4,0.955268
5899,28.8115,11383.6,0.95946
5916,28.8945,11399.6,0.959917
5933,28.9775,11439.6,0.961873
5950,29.0605,11476.3,0.96696
5967,29.1436,11485.7,0.968398
5984,29.2266,11542,0.9739278
6001,29.30957,11562.2,0.972595
6018,29.3926,11574.7,0.978058
6035,29.4756,11635.8,0.980261
6052,29.5586,11663.6,0.983247
6069,29.6416,11713.2,0.98753
6086,29.7246,11721.5,0.98822
6103,29.8076,11766.6,0.993303
6120,29.8906,11783.6,0.993052
6137,29.9736,11803.1,0.996496
6154,30.0566,11860.8,0.9998157
6171,30.1396,11895.7,1.00318
6188,30.2227,11934.7,1.00555
6205,30.3057,11916.7,1.00612
6222,30.3887,11980.2,1.01096
6239,30.47168,12019.4,1.01328
6256,30.5547,12050.1,1.01597
6273,30.6377,12097.2,1.018
6290,30.7207,12078.9,1.02126
6307,30.8037,12138.3,1.02582
6324,30.8867,12166.4,1.02801
6341,30.9697,12193.9,1.02807
6358,31.0527,12238.1,1.03427
6375,31.1357,12267.6,1.03604
6392,31.21875,12313.2,1.03909
6409,31.3018,12313.6,1.03981
6426,31.3848,12360.2,1.0443
6443,31.4678,12399.7,1.04654
6460,31.5508,12420,1.04867
6477,31.6338,12478.6,1.05316
6494,31.7168,12496.1,1.05481
6511,31.7998,12534.4,1.05876
6528,31.8828,12558.1,1.06112
6545,31.96582,12596.1,1.06368
6562,32.0488,12621.4,1.0666
6579,32.1318,12646.4,1.06808
6596,32.2148,12704.4,1.07211
6613,32.2979,12723.3,1.074703
6630,32.3809,12742.7,1.07772
6647,32.4639,12787.3,1.08239
6664,32.5469,12801.3,1.08279
6681,32.6299,12852.8,1.08544
6698,32.7129,12870.5,1.08856
6715,32.7959,12891.1,1.091
6732,32.8789,12935.3,1.093146
6749,32.9619,12958.5,1.09574
6766,33.0449,13014.5,1.09985
6783,33.12793,13034,1.10184
6800,33.2109,13065.5,1.10434
6817,33.2939,13101.5,1.1077
6834,33.377,13115.9,1.111
6851,33.46,13159.7,1.11363
6868,33.543,13185.9,1.11606
6885,33.626,13230.7,1.11948
6902,33.709,13234.7,1.11965
6919,33.792,13273.4,1.12432
6936,33.875,13312.1,1.12697
6953,33.958,13346.4,1.12974
6970,34.041,13390.7,1.13208
6987,34.124,13382.8,1.13474
7004,34.207,13456.7,1.13878
7021,34.29,13461.5,1.14025
7038,34.373,13507.7,1.14379
7055,34.4561,13538.7,1.14763
7072,34.5391,13561.4,1.15006
7089,34.62207,13614.9,1.151976
7106,34.7051,13618.4,1.15459
7123,34.7881,13646.1,1.15765
7140,34.8711,13697.7,1.1606
7157,34.9541,13720.8,1.16253
7174,35.0371,13775.4,1.16584
7191,35.1201,13770.8,1.16799
7208,35.2031,13827.8,1.17297
7225,35.2861,13854.9,1.1736
7242,35.3691,13874,1.17851
7259,35.4521,13915.5,1.17986
7276,35.5352,13930.8,1.18251
7293,35.6182,13983.8,1.18723
7310,35.7012,14003.2,1.18747
7327,35.78418,14021.6,1.19012
7344,35.8672,14078.5,1.193909
7361,35.9502,14086.7,1.19573
7378,36.0332,14144.2,1.20019
7395,36.1162,14160.2,1.20118
7412,36.1992,14188.7,1.20299
7429,36.2822,14236.1,1.20601
7446,36.3652,14225.3,1.209422
7463,36.4482,14294,1.21398
7480,36.53125,14316,1.21496
7497,36.6143,14354.2,1.21675
7514,36.6973,14363.9,1.22036
7531,36.7803,14399.2,1.22315
7548,36.8633,14457,1.22779
7565,36.9463,14462.3,1.22836
7582,37.0293,14512.4,1.23259
7599,37.1123,14537.6,1.23524
7616,37.1953,14564.2,1.23645
7633,37.27832,14603.6,1.24006
7650,37.3613,14623.3,1.242594
7667,37.4443,14676.4,1.24716
7684,37.5273,14695.4,1.24914
7701,37.6104,14729.2,1.25025
7718,37.6934,14748.3,1.25287
7735,37.7764,14773.3,1.25768
7752,37.8594,14827.9,1.26009
7769,37.9424,14838.1,1.26017
7786,38.0254,14893.7,1.26554
7803,38.1084,14915.1,1.2692
7820,38.1914,14943,1.27088
7837,38.2744,14972.9,1.27279
7854,38.3574,14998.4,1.27566
7871,38.44043,15046.7,1.27998
7888,38.5234,15076.6,1.2812
7905,38.6064,15103.7,1.28407
7922,38.6895,15128.2,1.28733
7939,38.7725,15127,1.29079
7956,38.8555,15204.7,1.29364
7973,38.9385,15215.1,1.29472
7990,39.0215,15263.5,1.29898
8007,39.1045,15248.4,1.29991
8024,39.1875,15312.3,1.303509
8041,39.2705,15343.7,1.30758
8058,39.3535,15377.8,1.30888
8075,39.4365,15407.8,1.31258
8092,39.5195,15441.6,1.31599
8109,39.6025,15476.7,1.31816
8126,39.6855,15496.8,1.3199
8143,39.7686,15514.1,1.32373
8160,39.8516,15581.7,1.327304
8177,39.93457,15593.6,1.32807
8194,40.0176,15636,1.331696
8211,40.1006,15666.2,1.33481
8228,40.1836,15670.7,1.33534
8245,40.2666,15740.6,1.34
8262,40.3496,15751.8,1.34242
8279,40.4326,15799.4,1.34749
8296,40.5156,15787.7,1.34709
8313,40.5986,15842.2,1.35082
8330,40.6816,15883.3,1.35287
8347,40.7646,15880.4,1.35655
8364,40.8477,15951.5,1.3605
8381,40.9307,15959.3,1.3598
8398,41.0137,16002.1,1.36501
8415,41.09668,16023.6,1.36633
8432,41.1797,16053.3,1.3701
8449,41.2627,16089.9,1.37273
8466,41.3457,16118.5,1.37443
8483,41.4287,16162.9,1.38004
8500,41.5117,16186,1.38092
8517,41.5947,16207.1,1.383249
8534,41.6777,16258.9,1.38709
8551,41.7607,16250.7,1.38954
8568,41.84375,16318.4,1.39285
8585,41.9268,16340.2,1.3943
8602,42.0098,16370.8,1.39888
8619,42.0928,16400.8,1.39952
8636,42.1758,16413.1,1.4034
8653,42.2588,16478.2,1.40748
8670,42.3418,16477.5,1.40946
8687,42.4248,16525.7,1.41189
8704,42.5078,16561.3,1.4148
8721,42.59082,16587.8,1.41648
8738,42.6738,16630.8,1.42107
8755,42.7568,16632.8,1.42215
8772,42.8398,16694.5,1.42527
8789,42.9229,16698.4,1.42594
8806,43.0059,16753.4,1.43193
8823,43.0889,16773.4,1.43321
8840,43.1719,16790.5,1.43617
8857,43.2549,16837.1,1.43961
8874,43.3379,16861.9,1.44289
8891,43.4209,16904.7,1.44609
8908,43.5039,16934.8,1.44756
8925,43.5869,16943.4,1.45019
8942,43.6699,16987,1.4538
8959,43.75293,17008,1.45521
8976,43.8359,17065.2,1.45978
8993,43.9189,17086.1,1.46126
9010,44.002,17117.1,1.46398
9027,44.085,17141.7,1.46665
9044,44.168,17167.8,1.47024
9061,44.251,17227.8,1.47304
9078,44.334,17247.9,1.47539
9095,44.417,17267.2,1.47792
9112,44.5,17306.4,1.48167
9129,44.583,17301.2,1.4821
9146,44.666,17366.2,1.48599
9163,44.749,17386.3,1.4901
9180,44.832,17424.6,1.49255
9197,44.915,17462.1,1.49433
9214,44.998,17472.5,1.49833
9231,45.0811,17504.7,1.50134
9248,45.1641,17523.4,1.50273
9265,45.24707,17581.5,1.50618
9282,45.3301,17597.4,1.5096
9299,45.4131,17629.4,1.5123
9316,45.4961,17672.6,1.51503
9333,45.5791,17663.8,1.5168
9350,45.6621,17734.9,1.52034
9367,45.7451,17763.3,1.522805
9384,45.8281,17799.1,1.52569
9401,45.9111,17823.8,1.52739
9418,45.9941,17824.7,1.53085
9435,46.0771,17893.1,1.53532
9452,46.1602,17906.9,1.535464
9469,46.2432,17964.7,1.54118
9486,46.3262,17970.7,1.54187
9503,46.40918,17995.9,1.54538
9520,46.4922,18048.2,1.54779
9537,46.5752,18036.7,1.54946
9554,46.6582,18102.3,1.55359
9571,46.7412,18121,1.55501
9588,46.8242,18174.6,1.55998
9605,46.9072,18197.2,1.56233
9622,46.9902,18200.9,1.56405
9639,47.0732,18238.1,1.56737
9656,47.15625,18266.2,1.56811
9673,47.2393,18313.4,1.57186
9690,47.3223,18334.1,1.57543
9707,47.4053,18342.9,1.57712
9724,47.4883,18382.4,1.58041
9741,47.5713,18399.8,1.581809
9758,47.6543,18460.9,1.58599
9775,47.7373,18487.2,1.58976
9792,47.8203,18517.1,1.59142
9809,47.90332,18550.8,1.59383
9826,47.9863,18559,1.59746
9843,48.0693,18608.5,1.59918
9860,48.1523,18638.4,1.60201
9877,48.2354,18667.7,1.60562
9894,48.3184,18703.4,1.60881
9911,48.4014,18724.7,1.61062
9928,48.4844,18763.3,1.61262
9945,48.5674,18789.3,1.615867
9962,48.6504,18830.5,1.61964
9979,48.7334,18861.5,1.62226
9996,48.8164,18883.9,1.62632
10013,48.8994,18917.5,1.62672
10030,48.9824,18926,1.63046
10047,49.06543,18982,1.63388
10064,49.1484,18998.5,1.63601
10081,49.2314,19040.9,1.63994
10098,49.3145,19066.1,1.64167
10115,49.3975,19082.9,1.64473
10132,49.4805,19136.5,1.6473
10149,49.5635,19149,1.64817
10166,49.6465,19187.8,1.65246
10183,49.7295,19217.6,1.65603
10200,49.8125,19232,1.65744
10217,49.8955,19273.1,1.65946
10234,49.9785,19282.5,1.6633
10251,50.0615,19335.5,1.66943
10268,50.1445,19370.5,1.66921
10285,50.2275,19406.3,1.67232
10302,50.3105,19420.1,1.67473
10319,50.3936,19428.5,1.67745
10336,50.4766,19484.9,1.67982
10353,50.55957,19511.6,1.6837
10370,50.6426,19557.6,1.68641
10387,50.7256,19585,1.68935
10404,50.8086,19607.9,1.69131
10421,50.8916,19643,1.69416
10438,50.9746,19652.2,1.69609
10455,51.0576,19701.9,1.70049
10472,51.1406,19725.5,1.70358
10489,51.2236,19751.8,1.70582
10506,51.3066,19788,1.70902
10523,51.3896,19781,1.71059
10540,51.4727,19852.2,1.71331
10557,51.5557,19874.2,1.71663
10574,51.6387,19909.5,1.71987
10591,51.72168,19946.5,1.72248
10608,51.8047,19947.4,1.72349
10625,51.8877,20001.8,1.72756
10642,51.9707,20006.9,1.72945
10659,52.0537,20061.4,1.73392
10676,52.1367,20100.2,1.73601
10693,52.2197,20118.8,1.73887
10710,52.3027,20151.6,1.7412
10727,52.3857,20141.3,1.74398
10744,52.46875,20202.2,1.74784
10761,52.5518,20222.6,1.74807
10778,52.6348,20256.9,1.75213
10795,52.7178,20299.6,1.75507
10812,52.8008,20303.7,1.75717
10829,52.8838,20347.9,1.761
10846,52.9668,20367.3,1.7626
10863,53.0498,20421.6,1.76705
10880,53.1328,20446.6,1.76985
10897,53.2158,20464.6,1.77097
10914,53.2988,20498.6,1.77422
10931,53.3818,20496,1.7766
10948,53.4648,20559.3,1.78035
10965,53.5479,20599.9,1.78291
10982,53.6309,20630.3,1.78607
10999,53.7139,20655.3,1.78861
11016,53.7969,20674.3,1.79044
11033,53.8799,20721.8,1.79426
11050,53.9629,20744.2,1.79684
11067,54.0459,20778.4,1.80078
11084,54.1289,20819.3,1.80228
11101,54.2119,20835.3,1.80507
11118,54.2949,20870.3,1.80761
11135,54.3779,20886.3,1.81073
11152,54.4609,20932.4,1.81448
11169,54.5439,20964.4,1.81433
11186,54.627,20993.6,1.819074
11203,54.71,21015.3,1.82252
11220,54.793,21031.9,1.82279
11237,54.876,21074.9,1.82817
11254,54.959,21102.2,1.82823
11271,55.042,21129.8,1.83305
11288,55.125,21170.7,1.83631
11305,55.208,21163.9,1.83666
11322,55.291,21214,1.83996
11339,55.374,21231.6,1.84211
11356,55.457,21281.8,1.84712
11373,55.54,21317.1,1.85038
11390,55.623,21332.8,1.85263
11407,55.7061,21375.4,1.85542
11424,55.7891,21351.7,1.85759
11441,55.8721,21440.7,1.86059
11458,55.9551,21452,1.86137
11475,56.0381,21481.4,1.86645
11492,56.1211,21519.3,1.8675
11509,56.2041,21539.9,1.86975
11526,56.2871,21580.4,1.87477
11543,56.3701,21589,1.87621
11560,56.4531,21647,1.88064
11577,56.5361,21676.2,1.88187
11594,56.6191,21665.5,1.88456
11611,56.7021,21729.9,1.88821
11628,56.7852,21740,1.890022
11645,56.8682,21791.7,1.89316
11662,56.9512,21817.8,1.89653
11679,57.0342,21851.5,1.89944
11696,57.1172,21876.9,1.90183
11713,57.2002,21864.2,1.90341
11730,57.2832,21933.1,1.90689
11747,57.3662,21958.3,1.91021
11764,57.4492,22002.3,1.91364
11781,57.5322,22018.1,1.91499
11798,57.6152,22043.5,1.91847
11815,57.6982,22079.2,1.92125
11832,57.78125,22078.9,1.92186
11849,57.8643,22141.4,1.92698
11866,57.9473,22179.4,1.92793
11883,58.0303,22200.6,1.93233
11900,58.1133,22239.7,1.9344
11917,58.1963,22226.9,1.93563
11934,58.2793,22293,1.94125
11951,58.3623,22316.2,1.941957
11968,58.4453,22351.4,1.9465
11985,58.5283,22390.1,1.948511
12002,58.6113,22407.2,1.95104
12019,58.6943,22437.1,1.95367
12036,58.7773,22458.6,1.95724
12053,58.8604,22504,1.95979
12070,58.9434,22540,1.96299
12087,59.0264,22555.7,1.96561
12104,59.1094,22610.6,1.96968
12121,59.1924,22601.4,1.96996
12138,59.2754,22655.3,1.97512
12155,59.3584,22680.9,1.97581
12172,59.4414,22714.4,1.97962
12189,59.5244,22734.6,1.98274
12206,59.6074,22761.2,1.985
12223,59.6904,22790.8,1.98715
12240,59.7734,22785.9,1.98884
12257,59.8564,22850.6,1.99246
12274,59.9395,22882.7,1.99707
12291,60.0225,22901.9,1.99847
12308,60.1055,22941.8,2.0029
12325,60.1885,22942.8,2.0021
12342,60.2715,23003,2.00831
12359,60.3545,23033,2.0092
12376,60.4375,23052.4,2.01254
12393,60.5205,23076.9,2.01517
12410,60.6035,23071.6,2.01679
12427,60.6865,23146.8,2.02044
12444,60.7695,23171.6,2.02301
12461,60.8525,23202.3,2.02561
12478,60.9355,23231.1,2.02922
12495,61.0186,23259.4,2.03127
12512,61.1016,23295.3,2.0332
12529,61.1846,23296.1,2.03539
12546,61.2676,23344.3,2.04189
12563,61.3506,23384.6,2.04289
12580,61.4336,23383,2.04586
12597,61.5166,23423,2.04754
12614,61.5996,23442,2.05009
12631,61.6826,23485.6,2.053195
12648,61.7656,23500,2.0557
12665,61.8486,23544.4,2.05932
12682,61.9316,23585.2,2.06201
12699,62.0146,23616.5,2.06498
12716,62.0977,23640.8,2.06852
12733,62.1807,23659.5,2.07026
12750,62.2637,23693.1,2.07458
12767,62.3467,23737.7,2.0772
12784,62.4297,23759.6,2.07933
12801,62.5127,23788.7,2.08214
12818,62.5957,23803.4,2.08517
12835,62.6787,23832.4,2.08742
12852,62.7617,23879.4,2.09103
12869,62.8447,23907.5,2.09223
12886,62.9277,23939,2.09518
12903,63.0107,23925.1,2.09864
12920,63.09375,23993.9,2.10194
12937,63.1768,24005.6,2.10298
12954,63.2598,24040.7,2.10756
12971,63.3428,24078.7,2.11082
12988,63.4258,24103.5,2.11287
13005,63.5088,24140.7,2.114929
13022,63.5918,24134.7,2.11652
13039,63.6748,24180.4,2.12078
13056,63.7578,24217.7,2.12392
13073,63.8408,24234.8,2.12542
13090,63.9238,24275.2,2.128648
13107,64.0068,24274.2,2.13198
13124,64.0898,24336,2.13457
13141,64.1729,24355.8,2.136965
13158,64.2559,24382.8,2.1412
13175,64.3389,24409.8,2.14303
13192,64.4219,24434,2.14537
13209,64.5049,24478.8,2.14792
13226,64.5879,24484.6,2.14975
13243,64.6709,24517.9,2.15336
13260,64.7539,24563,2.15748
13277,64.8369,24575.4,2.15881
13294,64.9199,24615.6,2.16446
13311,65.00293,24611.4,2.16438
13328,65.0859,24673.4,2.16899
13345,65.1689,24683.6,2.17043
13362,65.252,24710.5,2.1722
13379,65.335,24754.9,2.17608
13396,65.418,24764.4,2.17785
13413,65.501,24819.4,2.18233
13430,65.584,24826.6,2.18386
13447,65.667,24852.5,2.18687
13464,65.75,24899.1,2.19087
13481,65.833,24915.3,2.19226
13498,65.916,24944,2.19507
13515,65.999,24938,2.19589
13532,66.082,25006.9,2.20138
13549,66.165,25038.4,2.20407
13566,66.248,25050.3,2.20654
13583,66.3311,25094.3,2.20915
13600,66.4141,25111,2.21013
13617,66.49707,25141.7,2.21538
13634,66.5801,25167.9,2.21652
13651,66.6631,25198.9,2.22003
13668,66.7461,25221.9,2.22346
13685,66.8291,25238.3,2.22552
13702,66.9121,25297.6,2.22898
13719,66.9951,25300.5,2.23019
13736,67.0781,25331.3,2.23289
13753,67.1611,25363.7,2.23635
13770,67.2441,25393,2.23752
13787,67.3271,25436.8,2.24252
13804,67.4102,25448.4,2.24595
13821,67.4932,25471.7,2.24675
13838,67.5762,25518.2,2.2505
13855,67.65918,25532.1,2.254251
13872,67.7422,25571.8,2.25627
13889,67.8252,25601.2,2.25789
13906,67.9082,25631,2.26193
13923,67.9912,25643.6,2.26282
13940,68.0742,25685.2,2.26672
13957,68.1572,25713.7,2.26984
13974,68.2402,25737.5,2.27244
13991,68.3232,25759.1,2.27734
14008,68.40625,25781.3,2.27761
14025,68.4893,25809.1,2.27979
14042,68.5723,25854.4,2.28273
14059,68.6553,25870.4,2.28593
14076,68.7383,25916.6,2.28895
14093,68.8213,25936.7,2.29115
14110,68.9043,25972.9,2.29661
14127,68.9873,25971.1,2.29636
14144,69.0703,26031.9,2.3001
14161,69.15332,26054.6,2.30315
14178,69.2363,26073.3,2.3057
14195,69.3193,26120.9,2.31056
14212,69.4023,26122.7,2.31157
14229,69.4854,26163.9,2.31497
14246,69.5684,26198.2,2.31821
14263,69.6514,26206.1,2.3204
14280,69.7344,26257.3,2.3227
14297,69.8174,26258.9,2.32399
14314,69.9004,26298,2.32785
14331,69.9834,26328.6,2.33094
14348,70.0664,26349.8,2.333848
14365,70.1494,26394.5,2.3359
14382,70.2324,26414.8,2.33884
14399,70.31543,26443.3,2.34211
14416,70.3984,26464.9,2.34288
14433,70.4814,26486.7,2.34727
14450,70.5645,26520.1,2.34757
14467,70.6475,26539.4,2.35277
14484,70.7305,26590.3,2.35706
14501,70.8135,26595.3,2.35792
14518,70.8965,26643.2,2.362462
14535,70.9795,26662.9,2.36489
14552,71.0625,26682.6,2.36599
14569,71.1455,26717.8,2.36759
14586,71.2285,26741.7,2.37142
14603,71.3115,26791.4,2.375556
14620,71.3945,26803,2.37706
14637,71.4775,26819.9,2.37943
14654,71.5605,26849.9,2.38247
14671,71.6436,26883.5,2.38615
14688,71.7266,26923.8,2.39006
14705,71.80957,26930.7,2.38996
14722,71.8926,26957,2.3929
14739,71.9756,26990.3,2.396512
14756,72.0586,27001.2,2.40052
14773,72.1416,27045.7,2.40261
14790,72.2246,27046.2,2.40582
14807,72.3076,27107,2.40812
14824,72.3906,27110.5,2.409261
14841,72.4736,27155.9,2.41231
14858,72.5566,27186.4,2.41588
14875,72.6396,27213.9,2.41889
14892,72.7227,27248.8,2.422447
14909,72.8057,27267,2.42273
14926,72.8887,27306.2,2.42671
14943,72.97168,27334.2,2.43039
14960,73.0547,27354.3,2.43228
14977,73.1377,27380.2,2.43453
14994,73.2207,27368.5,2.43684
15011,73.3037,27439.9,2.44066
15028,73.3867,27466,2.44326
15045,73.4697,27481.1,2.44596
15062,73.5527,27528.7,2.44897
15079,73.6357,27544.8,2.45324
15096,73.71875,27585.1,2.4561
15113,73.8018,27602.8,2.45661
15130,73.8848,27624.3,2.45965
15147,73.9678,27654.2,2.46472
15164,74.0508,27682.9,2.4667
15181,74.1338,27725.7,2.46872
15198,74.2168,27755.3,2.47167
15215,74.2998,27774.8,2.47406
15232,74.3828,27805.4,2.47689
15249,74.46582,27825.8,2.47953
15266,74.5488,27863.4,2.48242
15283,74.6318,27883.4,2.4861
15300,74.7148,27918.2,2.48857
15317,74.7979,27938.3,2.48999
15334,74.8809,27956.2,2.49363
15351,74.9639,27982.7,2.49672
15368,75.0469,28025.9,2.49808
15385,75.1299,28062.2,2.50245
15402,75.2129,28074.2,2.50354
15419,75.2959,28102.6,2.507643
15436,75.3789,28137.5,2.51078
15453,75.4619,28155.1,2.512305
15470,75.5449,28198,2.51642
15487,75.62793,28209.1,2.51863
15504,75.7109,28248.9,2.5219
15521,75.7939,28271.9,2.52346
15538,75.877,28288.4,2.5253
15555,75.96,28321.4,2.52958
15572,76.043,28333.3,2.53115
15589,76.126,28388.2,2.5358
15606,76.209,28394.7,2.53728
15623,76.292,28432.2,2.54124
15640,76.375,28464.2,2.54265
15657,76.458,28473,2.54517
15674,76.541,28515.7,2.54959
15691,76.624,28531.5,2.54988
15708,76.707,28577.5,2.55525
15725,76.79,28595.9,2.55554
15742,76.873,28612.4,2.55907
15759,76.9561,28655.7,2.56285
15776,77.0391,28675.3,2.56633
15793,77.12207,28719.7,2.56863
15810,77.2051,28722,2.57015
15827,77.2881,28756.3,2.57356
15844,77.3711,28788.6,2.57645
15861,77.4541,28789.9,2.57787
15878,77.5371,28853,2.58249
15895,77.6201,28869.3,2.58431
15912,77.7031,28893.7,2.58731
15929,77.7861,28929.2,2.58847
15946,77.8691,28944.4,2.59264
15963,77.9521,28977.2,2.59578
15980,78.0352,28985.7,2.59675
15997,78.1182,29034.2,2.60094
16014,78.2012,29052.4,2.60403
16031,78.28418,29059.7,2.6066
16048,78.3672,29113.1,2.60844
16065,78.4502,29142.2,2.61266
16082,78.5332,29177.7,2.61469
16099,78.6162,29164.5,2.61642
16116,78.6992,29219.1,2.62174
16133,78.7822,29257.7,2.62442
16150,78.8652,29264,2.62577
16167,78.9482,29316.9,2.63056
16184,79.03125,29328.8,2.63087
16201,79.1143,29362.2,2.63419
16218,79.1973,29378.4,2.63603
16235,79.2803,29403.9,2.64032
16252,79.3633,29438.9,2.64269
16269,79.4463,29469.1,2.64557
16286,79.5293,29500.6,2.648581
16303,79.6123,29515.5,2.65002
16320,79.6953,29528.4,2.65455
16337,79.77832,29571,2.65631
16354,79.8613,29593.5,2.65946
16371,79.9443,29639.3,2.66332
16388,80.0273,29652.8,2.66499
16405,80.1104,29681.9,2.66715
16422,80.1934,29715.2,2.67045
16439,80.2764,29715.3,2.672708
16456,80.3594,29769.9,2.67585
16473,80.4424,29791.1,2.67794
16490,80.5254,29826,2.68168
16507,80.6084,29844,2.68426
16524,80.6914,29856.2,2.68731
16541,80.7744,29897.2,2.68907
16558,80.8574,29923.7,2.69174
16575,80.94043,29952,2.69534
16592,81.0234,29970.2,2.698293
16609,81.1064,29994,2.70081
16626,81.1895,30030.1,2.70449
16643,81.2725,30045.1,2.70518
16660,81.3555,30103.5,2.71026
16677,81.4385,30106.2,2.71048
16694,81.5215,30147.3,2.71455
16711,81.6045,30169.7,2.71728
16728,81.6875,30183.3,2.71917
16745,81.7705,30220,2.72262
16762,81.8535,30239.6,2.72534
16779,81.9365,30284.8,2.72916
16796,82.0195,30308.9,2.73146
16813,82.1025,30335.6,2.73322
16830,82.1855,30351.4,2.73653
16847,82.2686,30374.3,2.73847
16864,82.3516,30428.2,2.742929
16881,82.43457,30435.5,2.74516
16898,82.5176,30476.1,2.74913
16915,82.6006,30493.1,2.75093
16932,82.6836,30514.2,2.75337
16949,82.7666,30554.2,2.75514
16966,82.8496,30558.6,2.75881
16983,82.9326,30600.5,2.76154
17000,83.0156,30625.1,2.76427
17017,83.0986,30656.4,2.76758
17034,83.1816,30679.8,2.77024
17051,83.2646,30697.5,2.7733
17068,83.3477,30742.5,2.77684
17085,83.4307,30760.6,2.77754
17102,83.5137,30793.4,2.77997
17119,83.59668,30815.3,2.78313
17136,83.6797,30831.5,2.78704
17153,83.7627,30873.9,2.78882
17170,83.8457,30896,2.79119
17187,83.9287,30916,2.7969
17204,84.0117,30951.7,2.79812
17221,84.0947,30978.7,2.7992
17238,84.1777,31004.8,2.80394
17255,84.2607,31031.2,2.80589
17272,84.34375,31070.2,2.80915
17289,84.4268,31091.4,2.81109
17306,84.5098,31110.7,2.815
17323,84.5928,31149.4,2.81742
17340,84.6758,31147.5,2.81945
17357,84.7588,31212,2.8237
17374,84.8418,31215.4,2.82533
17391,84.9248,31244.2,2.82754
17408,85.0078,31284.2,2.83108
17425,85.09082,31278.2,2.83324
17442,85.1738,31325.6,2.83618
17459,85.2568,31349,2.8391
17476,85.3398,31399.5,2.84278
17493,85.4229,31408.5,2.84449
17510,85.5059,31434,2.84597
17527,85.5889,31463.5,2.85064
17544,85.6719,31481.4,2.85167
17561,85.7549,31530.8,2.85572
17578,85.8379,31540.5,2.8582
17595,85.9209,31571.8,2.86314
17612,86.0039,31596.9,2.86312
17629,86.0869,31612.5,2.86781
17646,86.1699,31652.2,2.87007
17663,86.25293,31674,2.87146
17680,86.3359,31705.4,2.876694
17697,86.4189,31732.5,2.87791
17714,86.502,31736.4,2.87985
17731,86.585,31782.1,2.88296
17748,86.668,31806.8,2.88621
17765,86.751,31850.6,2.88875
17782,86.834,31864.5,2.89114
17799,86.917,31887.1,2.89325
17816,87.0,31923.8,2.89777
17833,87.083,31914.5,2.89895
17850,87.166,31962.5,2.90251
17867,87.249,31968.3,2.90472
17884,87.332,32022.2,2.9085
17901,87.415,32045.2,2.91014
17918,87.498,32073.1,2.91284
17935,87.5811,32099.8,2.91734
17952,87.6641,32126.4,2.91962
17969,87.74707,32166.2,2.92259
17986,87.8301,32169.9,2.92404
18003,87.9131,32198.1,2.92693
18020,87.9961,32225.8,2.93036
18037,88.0791,32244.7,2.93262
18054,88.1621,32281.8,2.93601
18071,88.2451,32305.3,2.93796
18088,88.3281,32349.6,2.94203
18105,88.4111,32367.2,2.94435
18122,88.4941,32365.6,2.94658
18139,88.5771,32411.7,2.94861
18156,88.6602,32435.1,2.95224
18173,88.7432,32486.2,2.9554
18190,88.8262,32510.7,2.95875
18207,88.90918,32523.1,2.96223
18224,88.9922,32553.4,2.96419
18241,89.0752,32572.4,2.96482
18258,89.1582,32613.8,2.96922
18275,89.2412,32635.1,2.97294
18292,89.3242,32659,2.97488
18309,89.4072,32693.6,2.97852
18326,89.4902,32697.7,2.97988
18343,89.5732,32747.8,2.98431
18360,89.65625,32761.3,2.98557
18377,89.7393,32798.4,2.98857
18394,89.8223,32819.1,2.99243
18411,89.9053,32849.1,2.99559
18428,89.9883,32857.5,2.99743
18445,90.0713,32887.8,2.99987
18462,90.1543,32925.9,3.00317
18479,90.2373,32949.8,3.00606
18496,90.3203,32976.5,3.00702
18513,90.40332,32999.5,3.01004
18530,90.4863,33013,3.01289
18547,90.5693,33062,3.01623
18564,90.6523,33077.1,3.01864
18581,90.7354,33116.5,3.02138
18598,90.8184,33131.3,3.02514
18615,90.9014,33146.8,3.027523
18632,90.9844,33182.2,3.03013
18649,91.0674,33213.1,3.03184
18666,91.1504,33231.6,3.03659
18683,91.2334,33269.9,3.038377
18700,91.3164,33290.1,3.04089
18717,91.3994,33317.8,3.0448
18734,91.4824,33332,3.04661
18751,91.56543,33375.7,3.050056
18768,91.6484,33398,3.05253
18785,91.7314,33420.5,3.05433
18802,91.8145,33452.2,3.0573
18819,91.8975,33457.2,3.05945
18836,91.9805,33485.1,3.06384
18853,92.0635,33525.2,3.06528
18870,92.1465,33557.8,3.06894
18887,92.2295,33573.4,3.07153
18904,92.3125,33601.8,3.0753
18921,92.3955,33625.1,3.077925
18938,92.4785,33624.8,3.07929
18955,92.5615,33683.6,3.08356
18972,92.6445,33701.7,3.08633
18989,92.7275,33725.7,3.08806
19006,92.8105,33761.2,3.09249
19023,92.8936,33780.8,3.09394
19040,92.9766,33799.5,3.09787
19057,93.05957,33820.9,3.09739
19074,93.1426,33874.7,3.102802
19091,93.2256,33878.1,3.10395
19108,93.3086,33911.4,3.1081
19125,93.3916,33932.9,3.110183
19142,93.4746,33930.4,3.11334
19159,93.5576,33985.5,3.11681
19176,93.6406,34012.8,3.11883
19193,93.7236,34040.9,3.12084
19210,93.8066,34061.9,3.12463
19227,93.8896,34074.1,3.12575
19244,93.9727,34120.4,3.1308
19261,94.0557,34114.6,3.13163
19278,94.1387,34164.4,3.1363
19295,94.22168,34184.3,3.13755
19312,94.3047,34212,3.14227
19329,94.3877,34239.5,3.14351
19346,94.4707,34249.3,3.14425
19363,94.5537,34290.5,3.15003
19380,94.6367,34316.6,3.1514
19397,94.7197,34341.5,3.1549
19414,94.8027,34372.4,3.15746
19431,94.8857,34374.9,3.15959
19448,94.96875,34423.7,3.16398
19465,95.0518,34443.5,3.16586
19482,95.1348,34467.7,3.16836
19499,95.2178,34489,3.17213
19516,95.3008,34509.3,3.1736
19533,95.3838,34540.5,3.17746
19550,95.4668,34559.6,3.1784
19567,95.5498,34597.8,3.18321
19584,95.6328,34632.4,3.18584
19601,95.71582,34654.2,3.18717
19618,95.7988,34680.3,3.19144
19635,95.8818,34690,3.19302
19652,95.9648,34728.8,3.19609
19669,96.0479,34743,3.19881
19686,96.1309,34767,3.2001
19703,96.2139,34793.6,3.20486
19720,96.2969,34819.7,3.20681
19737,96.3799,34852,3.20999
19754,96.4629,34861.3,3.21273
19771,96.5459,34898.7,3.21573
19788,96.6289,34925.7,3.21788
19805,96.7119,34948.9,3.22143
19822,96.7949,34973.8,3.22437
19839,96.87793,34988.3,3.22604
19856,96.9609,35019,3.23144
19873,97.0439,35056.9,3.23216
19890,97.127,35075.9,3.23652
19907,97.21,35100,3.23743
19924,97.293,35112.7,3.23995
19941,97.376,35153.5,3.24226
19958,97.459,35174.6,3.24543
19975,97.542,35204.8,3.248549
19992,97.625,35238.3,3.25209
20009,97.708,35259.4,3.25422
20026,97.791,35289.5,3.25756
20043,97.874,35301.3,3.25906
20060,97.957,35341.4,3.26346
20077,98.04,35363.7,3.26539
20094,98.123,35389.5,3.26813
20111,98.2061,35415.8,3.27119
20128,98.2891,35405,3.274406
20145,98.37207,35465.3,3.27636
20162,98.4551,35489.7,3.27944
20179,98.5381,35501.8,3.28209
20196,98.6211,35545.3,3.28492
20213,98.7041,35554.9,3.28667
20230,98.7871,35590.5,3.28988
20247,98.8701,35594.8,3.29304
20264,98.9531,35641.5,3.29585
20281,99.0361,35665.4,3.29807
20298,99.1191,35684,3.30264
20315,99.2021,35708.2,3.30443
20332,99.2852,35703.8,3.30573
20349,99.3682,35764.1,3.3094
20366,99.4512,35778.5,3.31154
20383,99.53418,35810.5,3.31502
20400,99.6172,35836.8,3.31792
20417,99.7002,35852,3.32071
20434,99.7832,35875.5,3.322907
20451,99.8662,35907.7,3.32545
20468,99.9492,35941.1,3.329047
20485,100.032,35968,3.33103
20502,100.115,35978.4,3.33493
20519,100.198,35999.6,3.33685
20536,100.281,35992.6,3.33896
20553,100.364,36062.6,3.343
20570,100.447,36086.5,3.34585
20587,100.53,36107.9,3.35029
20604,100.613,36140.6,3.35137
20621,100.696,36142.9,3.35363
20638,100.7793,36172.5,3.3572
20655,100.8623,36195.2,3.35951
20672,100.945,36228.6,3.36225
20689,101.028,36258,3.36488
20706,101.111,36273.3,3.3665
20723,101.194,36307.7,3.3698
20740,101.277,36298,3.37267
20757,101.36,36350.8,3.37599
20774,101.443,36377.3,3.37856
20791,101.526,36399,3.38105
20808,101.609,36430.9,3.38478
20825,101.692,36441.2,3.38726
20842,101.775,36477.8,3.38987
20859,101.8584,36496.4,3.3926
20876,101.941,36523.6,3.3963
20893,102.024,36550.1,3.39872
20910,102.107,36552.5,3.40053
20927,102.19,36598.4,3.4034
20944,102.273,36611.3,3.40695
20961,102.356,36641.9,3.4098
20978,102.439,36662.5,3.41132
20995,102.522,36684.2,3.41427
21012,102.605,36715.8,3.41761
21029,102.688,36742.5,3.42035
21046,102.771,36762,3.424268
21063,102.854,36784.4,3.425586
21080,102.9375,36811.7,3.43017
21097,103.021,36849.9,3.43267
21114,103.104,36837.5,3.43331
21131,103.187,36889.6,3.43809
21148,103.27,36902.9,3.4392
21165,103.353,36935,3.44234
21182,103.436,36954.9,3.4446
21199,103.519,36974.9,3.44764
21216,103.602,37011.2,3.45046
21233,103.685,37009,3.45267
21250,103.768,37057.6,3.45601
21267,103.851,37074.8,3.457531
21284,103.934,37106.2,3.46015
21301,104.0166,37138.9,3.46452
21318,104.1,37134.3,3.46632
21335,104.183,37173.9,3.46918
21352,104.266,37199,3.47289
21369,104.349,37213.3,3.47602
21386,104.432,37252.5,3.47864
21403,104.515,37268,3.48213
21420,104.598,37304.5,3.48547
21437,104.681,37309.1,3.48569
21454,104.764,37339.5,3.49024
21471,104.847,37361.2,3.49276
21488,104.93,37392.4,3.49526
21505,105.0127,37425.9,3.49861
21522,105.0957,37438.1,3.50027
21539,105.179,37449.1,3.50365
21556,105.262,37486.4,3.50645
21573,105.345,37496.1,3.50993
21590,105.428,37539.8,3.51252
21607,105.511,37552.1,3.5142
21624,105.594,37591.2,3.51781
21641,105.677,37597.7,3.51994
21658,105.76,37624.8,3.52308
21675,105.843,37652.6,3.52764
21692,105.926,37683.1,3.52948
21709,106.009,37716.2,3.533
21726,106.0918,37715.2,3.53281
21743,106.1748,37732.7,3.53752
21760,106.258,37767,3.53798
21777,106.341,37792.2,3.54134
21794,106.424,37817.6,3.54558
21811,106.507,37824,3.5483
21828,106.59,37857.9,3.55047
21845,106.673,37882.2,3.55259
21862,106.756,37895.2,3.55578
21879,106.839,37927.3,3.55947
21896,106.922,37947.4,3.563
21913,107.005,37960.6,3.5654
21930,107.088,37983.1,3.56617
21947,107.1709,38003.9,3.57
21964,107.254,38033.4,3.57348
21981,107.337,38050.3,3.57612
21998,107.42,38087,3.57837
22015,107.503,38091.1,3.58007
22032,107.586,38105.8,3.58287
22049,107.669,38138.6,3.58681
22066,107.752,38157.2,3.58951
22083,107.835,38192.8,3.59235
22100,107.918,38199.7,3.59531
22117,108.001,38231.2,3.59671
22134,108.084,38243.7,3.6002
22151,108.167,38254.5,3.60258
22168,108.25,38302,3.60621
22185,108.333,38319,3.60848
22202,108.416,38341.7,3.61178
22219,108.499,38348.9,3.61342
22236,108.582,38380,3.61863
22253,108.665,38397.5,3.61898
22270,108.748,38423.2,3.6229
22287,108.831,38446.3,3.62642
22304,108.914,38466.4,3.62889
22321,108.997,38497.6,3.63079
22338,109.08,38510.8,3.63292
22355,109.163,38535.6,3.63578
22372,109.246,38560,3.63989
22389,109.3291,38579.7,3.64207
22406,109.412,38604.1,3.64419
22423,109.495,38614.4,3.64777
22440,109.578,38637,3.64969
22457,109.661,38665.3,3.65245
22474,109.744,38671.8,3.65592
22491,109.827,38706.7,3.65791
22508,109.91,38729.1,3.66181
22525,109.993,38747.4,3.66441
22542,110.076,38750.8,3.66628
22559,110.159,38788.6,3.66949
22576,110.242,38818.9,3.671674
22593,110.3252,38841,3.67568
22610,110.4082,38866.5,3.67889
22627,110.491,38869.9,3.67984
22644,110.574,38904.5,3.68383
22661,110.657,38937.3,3.68666
22678,110.74,38948,3.68961
22695,110.823,38969,3.69285
22712,110.906,38984.1,3.69412
22729,110.989,39022.5,3.69818
22746,111.072,39042.2,3.70021
22763,111.155,39049.4,3.70288
22780,111.238,39093.3,3.70621
22797,111.321,39098.3,3.70831
22814,111.4043,39134,3.710669
22831,111.4873,39142.1,3.71382
22848,111.57,39180.2,3.71696
22865,111.653,39197.4,3.71885
22882,111.736,39209.3,3.72187
22899,111.819,39245.1,3.72572
22916,111.902,39254.6,3.72628
22933,111.985,39292.4,3.73144
22950,112.068,39309.9,3.73329
22967,112.151,39329.2,3.73588
22984,112.234,39362.5,3.73899
23001,112.317,39369.3,3.74072
23018,112.4,39389.8,3.74382
23035,112.4834,39417.1,3.74782
23052,112.566,39433.2,3.75042
23069,112.649,39465.9,3.75373
23086,112.732,39487.7,3.75474
23103,112.815,39517.4,3.758662
23120,112.898,39516.7,3.76048
23137,112.981,39554.6,3.76302
23154,113.064,39571.2,3.76708
23171,113.147,39593.6,3.76924
23188,113.23,39621.9,3.77088
23205,113.313,39625.1,3.77391
23222,113.396,39666,3.77644
23239,113.479,39685.5,3.77969
23256,113.5625,39708.9,3.78238
23273,113.646,39736.2,3.78519
23290,113.729,39735.5,3.78871
23307,113.812,39778.4,3.7921
23324,113.895,39789.2,3.79333
23341,113.978,39815.4,3.79668
23358,114.061,39838.3,3.79804
23375,114.144,39854.9,3.80189
23392,114.227,39886.4,3.80405
23409,114.31,39889.1,3.806
23426,114.393,39925.9,3.80987
23443,114.476,39947,3.81443
23460,114.559,39973,3.81643
23477,114.6416,40002.9,3.81971
23494,114.725,40005.8,3.82027
23511,114.808,40042.5,3.8247
23528,114.891,40056,3.82855
23545,114.974,40077.8,3.82993
23562,115.057,40099.9,3.83239
23579,115.14,40122.6,3.83452
23596,115.223,40151.5,3.83926
23613,115.306,40162.1,3.84034
23630,115.389,40169.3,3.84371
23647,115.472,40203.2,3.84561
23664,115.555,40221.2,3.84903
23681,115.6377,40254.6,3.85342
23698,115.7207,40267.4,3.85339
23715,115.804,40288.5,3.85705
23732,115.887,40303.4,3.8592
23749,115.97,40316.7,3.86285
23766,116.053,40353.6,3.865746
23783,116.136,40375.4,3.86819
23800,116.219,40402,3.8719
23817,116.302,40421.7,3.87417
23834,116.385,40430.9,3.87705
23851,116.468,40454,3.87928
23868,116.551,40477.7,3.88174
23885,116.634,40503.5,3.88484
23902,116.7168,40512.9,3.88705
23919,116.7998,40532.2,3.889508
23936,116.883,40566.9,3.89363
23953,116.966,40575.2,3.89566
23970,117.049,40612.8,3.89998
23987,117.132,40621.7,3.9026
24004,117.215,40646.5,3.90444
24021,117.298,40665.5,3.905293
24038,117.381,40679.5,3.9096
24055,117.464,40706.2,3.91339
24072,117.547,40726.6,3.91536
24089,117.63,40759.7,3.91918
24106,117.713,40746.5,3.92048
24123,117.7959,40787.3,3.92496
24140,117.879,40820,3.92547
24157,117.962,40822,3.92905
24174,118.045,40859.6,3.93149
24191,118.128,40877,3.93537
24208,118.211,40900.8,3.93839
24225,118.294,40911.1,3.94016
24242,118.377,40933,3.9438
24259,118.46,40963.7,3.94615
24276,118.543,40978.2,3.947602
24293,118.626,41002.9,3.95157
24310,118.709,41006.2,3.95579
24327,118.792,41041.1,3.95743
24344,118.875,41065.5,3.96151
24361,118.958,41069.5,3.96225
24378,119.041,41107,3.96592
24395,119.124,41119.3,3.96897
24412,119.207,41147.2,3.97089
24429,119.29,41159.7,3.9749
24446,119.373,41172.1,3.97807
24463,119.456,41198.3,3.97974
24480,119.539,41223.9,3.98214
24497,119.622,41242.2,3.98511
24514,119.705,41257.5,3.98726
24531,119.788,41278.6,3.99028
24548,119.871,41290.5,3.99252
24565,119.9541,41310.9,3.99505
24582,120.037,41336,3.99884
24599,120.12,41356,4.00116
24616,120.203,41380,4.00463
24633,120.286,41390.5,4.00708
24650,120.369,41404.5,4.01122
24667,120.452,41440.5,4.01349
24684,120.535,41451.1,4.01581
24701,120.618,41475.7,4.01769
24718,120.701,41490.9,4.02045
24731,120.765,-9155.75,4.45724