File: ASM109_2021_data/MTS/Quasi/MTS_quasi_10.csv
,Time [s],Load [N],Displacement [mm]
0,0.00683594,-422.644,-8.85129e-05
18,0.0947266,-305.442,0.0025177
36,0.182617,-277.428,0.005864203
54,0.270508,-249.99,0.00794873
72,0.358398,-209.551,0.0116868
90,0.446289,-225.911,0.01357913
108,0.53418,-156.173,0.015981
126,0.62207,-131.122,0.0184661
144,0.709961,-99.6376,0.0227027
162,0.797852,-28.5131,0.02580151
180,0.885742,3.44473,0.0285195
198,0.973633,31.7301,0.0312415
216,1.06152,81.2634,0.0353689
234,1.14941,95.2005,0.0362594
252,1.2373,146.538,0.0410512
270,1.3252,181.532,0.0425456
288,1.41309,201.454,0.0451711
306,1.50098,262.259,0.04869774
324,1.58887,285.018,0.0528207
342,1.67676,335.306,0.0561288
360,1.76465,372.95,0.0577453
378,1.85254,363.907,0.05962953
396,1.94043,439.255,0.0635393
414,2.02832,477.703,0.0662483
432,2.11621,486.842,0.0694142
450,2.2041,546.819,0.071412
468,2.29199,575.042,0.0747617
486,2.37988,626.466,0.0785641
504,2.46777,660.052,0.0819281
522,2.55566,687.883,0.0816554
540,2.64355,729.803,0.0868696
558,2.73145,727.859,0.0873841
576,2.81934,760.525,0.0920852
594,2.90723,837.766,0.0954558
612,2.99512,857.778,0.0975457
630,3.08301,905.181,0.101335
648,3.1709,940.363,0.105194
666,3.25879,972.518,0.10533
684,3.34668,1018.19,0.110383
702,3.43457,1039.61,0.11144
720,3.52246,1058.37,0.115444
738,3.61035,1119.64,0.118097
756,3.69824,1134.89,0.121658
774,3.78613,1206.56,0.124153
792,3.87402,1235.87,0.12915
810,3.96191,1257.58,0.130199
828,4.0498,1314.99,0.1334694
846,4.1377,1294.32,0.134099
864,4.22559,1368.25,0.138453
882,4.31348,1412.02,0.14147
900,4.40137,1426.17,0.144823
918,4.48926,1499.8,0.1482068
936,4.57715,1526.4,0.151823
954,4.66504,1543.7,0.153816
972,4.75293,1609.51,0.156877
990,4.84082,1589.32,0.1590322
1008,4.92871,1652.7,0.161975
1026,5.0166,1698.69,0.165664
1044,5.10449,1725.85,0.167816
1062,5.19238,1785.58,0.171745
1080,5.28027,1819.58,0.174283
1098,5.36816,1845.32,0.175912
1116,5.45605,1890.5,0.179599
1134,5.54395,1871.58,0.180438
1152,5.63184,1947.46,0.1845932
1170,5.71973,1978.52,0.188261
1188,5.80762,1993.17,0.190191
1206,5.89551,2070.06,0.195395
1224,5.9834,2090.61,0.198348
1242,6.07129,2133.99,0.200871
1260,6.15918,2173.17,0.203847
1278,6.24707,2163.8,0.204703
1296,6.33496,2239.36,0.210427
1314,6.42285,2264.99,0.21057
1332,6.51074,2296.32,0.215194
1350,6.59863,2362.22,0.219584
1368,6.68652,2388.81,0.22125
1386,6.77441,2414.76,0.224504
1404,6.8623,2468.96,0.228497
1422,6.9502,2474.69,0.228696
1440,7.03809,2522.88,0.234054
1458,7.12598,2559.49,0.234008
1476,7.21387,2580.41,0.237714
1494,7.30176,2648.35,0.243136
1512,7.38965,2672.37,0.245001
1530,7.47754,2712.53,0.247266
1548,7.56543,2751.98,0.252195
1566,7.65332,2754.74,0.251475
1584,7.74121,2823.26,0.257059
1602,7.8291,2843.96,0.25734
1620,7.91699,2883.24,0.261414
1638,8.00488,2925.91,0.263908
1656,8.09277,2951.31,0.267322
1674,8.18066,3000.63,0.270807
1692,8.26855,3033.4,0.27467
1710,8.35645,3058.53,0.275436
1728,8.44434,3104.73,0.279912
1746,8.53223,3129.58,0.281231
1764,8.62012,3151.02,0.2861613
1782,8.70801,3213.62,0.288619
1800,8.7959,3212.76,0.291378
1818,8.88379,3282.65,0.295748
1836,8.97168,3323.08,0.298951
1854,9.05957,3343.59,0.29998
1872,9.14746,3397.78,0.304052
1890,9.23535,3389.15,0.304038
1908,9.32324,3448.98,0.308712
1926,9.41113,3492.82,0.312726
1944,9.49902,3514.13,0.3129749
1962,9.58691,3563.7,0.318284
1980,9.6748,3598.51,0.319874
1998,9.7627,3621.22,0.322161
2016,9.85059,3680.74,0.328326
2034,9.93848,3652.8,0.328092
2052,10.0264,3740.28,0.332733
2070,10.1143,3766.13,0.3344
2088,10.2021,3785.39,0.336395
2106,10.29,3860.53,0.340374
2124,10.3779,3871.91,0.344994
2142,10.4658,3916.17,0.345361
2160,10.5537,3952.33,0.349983
2178,10.6416,3963.92,0.351115
2196,10.7295,4011.06,0.354525
2214,10.8174,4065.37,0.357832
2232,10.9053,4046.06,0.362074
2250,10.9932,4124.42,0.363549
2268,11.0811,4157.27,0.367495
2286,11.1689,4198.36,0.369352
2304,11.2568,4229.75,0.373062
2322,11.3447,4255.4,0.373723
2340,11.4326,4301.47,0.379575
2358,11.5205,4338.71,0.382107
2376,11.6084,4346.59,0.385335
2394,11.6963,4414.41,0.388003
2412,11.7842,4441.3,0.390516
2430,11.8721,4482.5,0.393368
2448,11.96,4525.48,0.396148
2466,12.0479,4519.58,0.398667
2484,12.1357,4590.11,0.402189
2502,12.2236,4615.95,0.404753
2520,12.3115,4644.2,0.409506
2538,12.3994,4684.2,0.411831
2556,12.4873,4719.63,0.412912
2574,12.5752,4770.55,0.4169
2592,12.6631,4799.33,0.420502
2610,12.751,4804.05,0.421607
2628,12.8389,4875.23,0.426262
2646,12.9268,4900.43,0.429069
2664,13.0146,4917.76,0.430985
2682,13.1025,4974.97,0.436132
2700,13.19043,4978.87,0.436987
2718,13.27832,5052.92,0.440171
2736,13.3662,5074.86,0.443683
2754,13.4541,5111.33,0.444951
2772,13.542,5159.69,0.449364
2790,13.6299,5167.26,0.451128
2808,13.7178,5206.23,0.4554154
2826,13.8057,5254.35,0.457992
2844,13.8936,5281.39,0.45964
2862,13.9814,5335.74,0.464361
2880,14.0693,5359.44,0.46767
2898,14.1572,5388.27,0.469153
2916,14.2451,5439.45,0.474491
2934,14.333,5451.98,0.474613
2952,14.4209,5495.92,0.478441
2970,14.5088,5529.21,0.4808794
2988,14.59668,5563.18,0.483568
3006,14.68457,5609.49,0.487809
3024,14.7725,5645.9,0.49023
3042,14.8604,5666.09,0.493683
3060,14.9482,5713.51,0.496836
3078,15.0361,5713.76,0.497554
3096,15.124,5766.89,0.501911
3114,15.2119,5811.92,0.50446
3132,15.2998,5833.31,0.508427
3150,15.3877,5892.57,0.512092
3168,15.4756,5933.15,0.51392
3186,15.5635,5944.7,0.516506
3204,15.6514,5997.28,0.518889
3222,15.7393,5983.07,0.522031
3240,15.8271,6047.82,0.525966
3258,15.915,6085.46,0.527675
3276,16.00293,6111.42,0.531247
3294,16.09082,6173.55,0.532742
3312,16.1787,6191.93,0.535486
3330,16.2666,6239.7,0.541031
3348,16.3545,6278.2,0.543874
3366,16.4424,6253.28,0.545109
3384,16.5303,6339.11,0.549294
3402,16.6182,6359.35,0.551333
3420,16.7061,6378.73,0.555352
3438,16.7939,6445.66,0.558658
3456,16.8818,6464.18,0.560388
3474,16.9697,6516.6,0.564347
3492,17.0576,6555.67,0.567841
3510,17.1455,6578.61,0.568994
3528,17.2334,6626.93,0.572809
3546,17.3213,6655.6,0.573223
3564,17.40918,6669.97,0.577671
3582,17.49707,6727.92,0.581891
3600,17.585,6752.05,0.583839
3618,17.6729,6798.85,0.587417
3636,17.7607,6838.72,0.590676
3654,17.8486,6843.65,0.591856
3672,17.9365,6903.02,0.597168
3690,18.0244,6923.36,0.597503
3708,18.1123,6943.54,0.602491
3726,18.2002,7000.79,0.60526
3744,18.2881,7008.75,0.607553
3762,18.376,7082.36,0.612281
3780,18.4639,7115.47,0.613667
3798,18.5518,7144.08,0.615392
3816,18.6396,7180.64,0.62009
3834,18.7275,7197.81,0.620592
3852,18.81543,7232.05,0.6249274
3870,18.90332,7269.57,0.628098
3888,18.9912,7295.27,0.631206
3906,19.0791,7362.11,0.634287
3924,19.167,7383.8,0.636699
3942,19.2549,7413.58,0.640191
3960,19.3428,7459.27,0.644273
3978,19.4307,7449.23,0.645488
3996,19.5186,7513.49,0.648471
4014,19.6064,7532.95,0.651292
4032,19.6943,7572.43,0.654479
4050,19.7822,7625.88,0.658712
4068,19.8701,7666.15,0.659533
4086,19.958,7684.93,0.661461
4104,20.0459,7729.82,0.666827
4122,20.1338,7737.85,0.666396
4140,20.22168,7776.23,0.671415
4158,20.30957,7834.61,0.675145
4176,20.3975,7849.95,0.678947
4194,20.4854,7894.28,0.6816535
4212,20.5732,7919.31,0.684833
4230,20.6611,7971.53,0.686055
4248,20.749,8005.82,0.68965
4266,20.8369,8005.7,0.691157
4284,20.9248,8056.06,0.697017
4302,21.0127,8095.38,0.696755
4320,21.1006,8128.47,0.702373
4338,21.1885,8181.13,0.704247
4356,21.2764,8206.85,0.707819
4374,21.3643,8235.35,0.709822
4392,21.4521,8281.4,0.713397
4410,21.54,8300.33,0.714661
4428,21.62793,8346.52,0.7187
4446,21.71582,8358.63,0.721102
4464,21.8037,8400.27,0.724447
4482,21.8916,8439.52,0.727608
4500,21.9795,8489.78,0.730852
4518,22.0674,8518.48,0.733855
4536,22.1553,8553.01,0.737527
4554,22.2432,8555.86,0.737898
4572,22.3311,8619.46,0.743241
4590,22.4189,8636.17,0.743197
4608,22.5068,8671.32,0.748553
4626,22.5947,8719.29,0.752742
4644,22.6826,8743.09,0.753726
4662,22.7705,8797.22,0.756802
4680,22.8584,8832.6,0.760216
4698,22.9463,8839.02,0.762411
4716,23.03418,8894,0.767141
4734,23.12207,8909.68,0.7686491
4752,23.21,8940.04,0.772305
4770,23.2979,8998.55,0.774796
4788,23.3857,9011.16,0.776536
4806,23.4736,9063.25,0.77982
4824,23.5615,9095.27,0.782478
4842,23.6494,9112.23,0.785259
4860,23.7373,9173.79,0.789425
4878,23.8252,9178.28,0.792231
4896,23.9131,9222.69,0.795201
4914,24.001,9268.6,0.798119
4932,24.0889,9286.26,0.80082
4950,24.1768,9338.6,0.8041786
4968,24.2646,9367.21,0.806757
4986,24.3525,9395.38,0.808584
5004,24.44043,9439.81,0.814895
5022,24.52832,9429.15,0.814446
5040,24.6162,9497.61,0.819262
5058,24.7041,9507.64,0.8213
5076,24.792,9558.62,0.824292
5094,24.8799,9602.12,0.827262
5112,24.9678,9635.57,0.830021
5130,25.0557,9676.23,0.833596
5148,25.1436,9698.45,0.835801
5166,25.2314,9699.69,0.837904
5184,25.3193,9765.29,0.841988
5202,25.4072,9787.93,0.843918
5220,25.4951,9825.89,0.848977
5238,25.583,9875.35,0.850229
5256,25.6709,9891.24,0.852566
5274,25.7588,9931.48,0.857398
5292,25.84668,9978.13,0.861158
5310,25.93457,9967.05,0.860875
5328,26.0225,10032.7,0.865026
5346,26.1104,10076,0.867012
5364,26.1982,10099.9,0.871844
5382,26.2861,10154.7,0.875957
5400,26.374,10172.5,0.87706
5418,26.4619,10184.6,0.881104
5436,26.5498,10244.3,0.882749
5454,26.6377,10247.6,0.883465
5472,26.7256,10300.1,0.889348
5490,26.8135,10336.2,0.889896
5508,26.9014,10367.5,0.89551
5526,26.9893,10432.3,0.898737
5544,27.0771,10439.6,0.900459
5562,27.165,10491.7,0.90427
5580,27.25293,10517.8,0.908179
5598,27.34082,10540.4,0.909334
5616,27.4287,10574.1,0.911734
5634,27.5166,10610.7,0.914686
5652,27.6045,10637,0.919019
5670,27.6924,10680.5,0.9212954
5688,27.7803,10715,0.924378
5706,27.8682,10760,0.92598
5724,27.9561,10782.4,0.929928
5742,28.0439,10814.4,0.93187
5760,28.1318,10848.7,0.935873
5778,28.2197,10873.5,0.937335
5796,28.3076,10903.2,0.94209
5814,28.3955,10941.3,0.943938
5832,28.4834,10979.7,0.949125
5850,28.5713,11021.6,0.949298
5868,28.65918,11055.8,0.953094
5886,28.74707,11089.9,0.955018
5904,28.835,11134.3,0.958938
5922,28.9229,11112.9,0.960486
5940,29.0107,11174.6,0.96527
5958,29.0986,11220.8,0.968046
5976,29.1865,11247.6,0.969969
5994,29.2744,11301.4,0.973967
6012,29.3623,11330,0.977347
6030,29.4502,11351.3,0.979076
6048,29.5381,11395.7,0.983457
6066,29.626,11370.1,0.984805
6084,29.7139,11455.1,0.989025
6102,29.8018,11500.2,0.991871
6120,29.8896,11530.4,0.994868
6138,29.9775,11571.2,0.99814
6156,30.06543,11587.6,1.001616
6174,30.15332,11630.6,1.00257
6192,30.2412,11666.4,1.00635
6210,30.3291,11676.9,1.00831
6228,30.417,11730.5,1.01246
6246,30.5049,11765.5,1.014799
6264,30.5928,11779.3,1.01738
6282,30.6807,11840.9,1.02101
6300,30.7686,11863.1,1.02313
6318,30.8564,11890.7,1.02595
6336,30.9443,11928.7,1.03055
6354,31.0322,11923.8,1.03079
6372,31.1201,11981.2,1.03549
6390,31.208,12022.5,1.03723
6408,31.2959,12060.2,1.04078
6426,31.3838,12099.5,1.04528
6444,31.47168,12127.1,1.04593
6462,31.55957,12163.9,1.05067
6480,31.6475,12200.3,1.05214
6498,31.7354,12201.4,1.05501
6516,31.8232,12260.2,1.0587
6534,31.9111,12272.4,1.06098
6552,31.999,12308.2,1.064875
6570,32.0869,12365.1,1.06841
6588,32.1748,12390.4,1.07007
6606,32.2627,12429.4,1.07288
6624,32.3506,12454.8,1.07552
6642,32.4385,12462.5,1.07891
6660,32.5264,12524.3,1.08297
6678,32.6143,12550.2,1.08402
6696,32.7021,12577.5,1.08762
6714,32.79,12622.9,1.09198
6732,32.87793,12647.6,1.09341
6750,32.96582,12694,1.09689
6768,33.0537,12733.6,1.10079
6786,33.1416,12719.7,1.10315
6804,33.2295,12786,1.1062
6822,33.3174,12780.4,1.10729
6840,33.4053,12838.7,1.11206
6858,33.4932,12895,1.11405
6876,33.5811,12914.8,1.11894
6894,33.6689,12961.6,1.120267
6912,33.7568,12984.4,1.12391
6930,33.8447,13013.8,1.124193
6948,33.9326,13054.8,1.12824
6966,34.0205,13062.5,1.13035
6984,34.1084,13115.7,1.13415
7002,34.1963,13148.5,1.137342
7020,34.28418,13177.1,1.13945
7038,34.37207,13228.9,1.14384
7056,34.46,13230.7,1.147141
7074,34.5479,13281,1.14847
7092,34.6357,13320.9,1.15267
7110,34.7236,13311.9,1.15554
7128,34.8115,13383.3,1.15876
7146,34.8994,13410.7,1.16079
7164,34.9873,13441.7,1.1636
7182,35.0752,13498.9,1.16876
7200,35.1631,13501.3,1.16924
7218,35.251,13541.9,1.172
7236,35.3389,13586.4,1.17665
7254,35.4268,13584.6,1.17725
7272,35.5146,13643.7,1.1825
7290,35.6025,13673.7,1.18457
7308,35.69043,13702.2,1.18779
7326,35.77832,13757.5,1.1922
7344,35.8662,13768.1,1.19358
7362,35.9541,13814.8,1.19582
7380,36.042,13847.9,1.19907
7398,36.1299,13822.1,1.20081
7416,36.2178,13879.6,1.20621
7434,36.3057,13935,1.20713
7452,36.3936,13968.4,1.21097
7470,36.4814,14005.5,1.21451
7488,36.5693,14032.4,1.21608
7506,36.6572,14072.1,1.21938
7524,36.7451,14097.2,1.22117
7542,36.833,14089.7,1.2246
7560,36.9209,14166.9,1.22894
7578,37.0088,14192,1.23053
7596,37.09668,14214.6,1.23583
7614,37.18457,14274.2,1.23883
7632,37.2725,14297.7,1.24011
7650,37.3604,14338.5,1.24309
7668,37.4482,14372,1.2464
7686,37.5361,14398.6,1.24852
7704,37.624,14435.9,1.2526
7722,37.7119,14457.9,1.25412
7740,37.7998,14490.7,1.25805
7758,37.8877,14538.8,1.26154
7776,37.9756,14563.3,1.26355
7794,38.0635,14601.2,1.26586
7812,38.1514,14627.1,1.26993
7830,38.2393,14658.8,1.27192
7848,38.3271,14691.8,1.27514
7866,38.415,14717.5,1.27645
7884,38.50293,14746,1.28089
7902,38.59082,14793.1,1.28351
7920,38.6787,14816.6,1.28797
7938,38.7666,14863.4,1.29077
7956,38.8545,14899.9,1.293974
7974,38.9424,14884.8,1.29451
7992,39.0303,14960.7,1.29903
8010,39.1182,14955.1,1.30086
8028,39.2061,15007.8,1.30518
8046,39.2939,15053.4,1.30748
8064,39.3818,15072.6,1.31011
8082,39.4697,15130.6,1.31427
8100,39.5576,15148.8,1.31723
8118,39.6455,15181,1.31865
8136,39.7334,15207.5,1.32231
8154,39.8213,15213.7,1.325069
8172,39.90918,15275.6,1.32961
8190,39.99707,15315.2,1.332234
8208,40.085,15341.2,1.33392
8226,40.1729,15374,1.33688
8244,40.2607,15404.8,1.34004
8262,40.3486,15450.6,1.34291
8280,40.4365,15475,1.34587
8298,40.5244,15452.7,1.34631
8316,40.6123,15541,1.35218
8334,40.7002,15565.1,1.35304
8352,40.7881,15606.1,1.35703
8370,40.876,15639.5,1.36089
8388,40.9639,15664.1,1.362644
8406,41.0518,15696.9,1.36657
8424,41.1396,15732.3,1.36903
8442,41.2275,15713.3,1.37056
8460,41.31543,15797.7,1.37462
8478,41.40332,15827.1,1.3776
8496,41.4912,15861.8,1.38068
8514,41.5791,15904.6,1.38541
8532,41.667,15922,1.38669
8550,41.7549,15949.3,1.38911
8568,41.8428,15990.6,1.39414
8586,41.9307,16006.7,1.39442
8604,42.0186,16056,1.39877
8622,42.1064,16088.3,1.40209
8640,42.1943,16127.4,1.40522
8658,42.2822,16166.5,1.4074
8676,42.3701,16186.1,1.40962
8694,42.458,16233.7,1.41309
8712,42.5459,16257.6,1.415606
8730,42.6338,16271.7,1.41848
8748,42.72168,16318.5,1.42181
8766,42.80957,16333.9,1.42334
8784,42.8975,16381.9,1.42889
8802,42.9854,16430.2,1.43108
8820,43.0732,16450.1,1.43333
8838,43.1611,16495,1.43662
8856,43.249,16518.3,1.43904
8874,43.3369,16543,1.44181
8892,43.4248,16565.5,1.44622
8910,43.5127,16590.9,1.44605
8928,43.6006,16641.2,1.452287
8946,43.6885,16677.8,1.45511
8964,43.7764,16696.5,1.45636
8982,43.8643,16746,1.46126
9000,43.9521,16778.5,1.46165
9018,44.04,16804.6,1.4656
9036,44.12793,16830.4,1.46841
9054,44.21582,16823.6,1.471522
9072,44.3037,16907.8,1.47614
9090,44.3916,16933.5,1.47666
9108,44.4795,16955.4,1.48023
9126,44.5674,17015.1,1.48235
9144,44.6553,16995.6,1.48577
9162,44.7432,17056.7,1.48916
9180,44.8311,17090.5,1.49209
9198,44.9189,17116.1,1.49386
9216,45.0068,17153.6,1.49952
9234,45.0947,17192.6,1.50117
9252,45.1826,17216.1,1.50377
9270,45.2705,17264.2,1.50805
9288,45.3584,17287.7,1.50935
9306,45.4463,17318.2,1.51356
9324,45.53418,17348,1.5166
9342,45.62207,17346.7,1.51858
9360,45.71,17416.2,1.52177
9378,45.7979,17453.3,1.52397
9396,45.8857,17473,1.5287
9414,45.9736,17521.3,1.52948
9432,46.0615,17525.4,1.53292
9450,46.1494,17576,1.53511
9468,46.2373,17612.6,1.53931
9486,46.3252,17599.1,1.54188
9504,46.4131,17669.1,1.54499
9522,46.501,17695.4,1.54679
9540,46.5889,17732,1.55102
9558,46.6768,17762.9,1.55354
9576,46.7646,17762.6,1.55643
9594,46.8525,17838.7,1.55969
9612,46.94043,17857.4,1.56227
9630,47.02832,17852.7,1.5665
9648,47.1162,17915.4,1.56932
9666,47.2041,17944.3,1.57055
9684,47.292,17979.7,1.57428
9702,47.3799,18018.7,1.57707
9720,47.4678,18048.8,1.57951
9738,47.5557,18092.6,1.58329
9756,47.6436,18114.9,1.58552
9774,47.7314,18145.3,1.58805
9792,47.8193,18169.1,1.59185
9810,47.9072,18195.7,1.59502
9828,47.9951,18241.3,1.59857
9846,48.083,18288.9,1.601315
9864,48.1709,18307.9,1.60397
9882,48.2588,18348,1.60669
9900,48.34668,18350.3,1.60698
9918,48.43457,18395.5,1.61236
9936,48.5225,18435,1.61488
9954,48.6104,18457.7,1.61512
9972,48.6982,18487.3,1.6221
9990,48.7861,18541.3,1.6238
10008,48.874,18564,1.62708
10026,48.9619,18605.9,1.63067
10044,49.0498,18636.8,1.63313
10062,49.1377,18656.7,1.63648
10080,49.2256,18672.7,1.63732
10098,49.3135,18709.6,1.64076
10116,49.4014,18754.7,1.64484
10134,49.4893,18805.1,1.647027
10152,49.5771,18791.1,1.64913
10170,49.665,18863.3,1.65338
10188,49.75293,18863.4,1.65454
10206,49.84082,18905.6,1.65847
10224,49.9287,18932.6,1.660236
10242,50.0166,18949.8,1.66425
10260,50.1045,19006.9,1.66885
10278,50.1924,19031.9,1.67138
10296,50.2803,19071.8,1.67423
10314,50.3682,19119.8,1.67694
10332,50.4561,19127.8,1.67817
10350,50.5439,19166.8,1.68232
10368,50.6318,19194.9,1.6847
10386,50.7197,19189,1.68732
10404,50.8076,19266.8,1.69162
10422,50.8955,19299.7,1.69349
10440,50.9834,19322.3,1.69674
10458,51.0713,19369.5,1.70165
10476,51.15918,19362.2,1.70213
10494,51.24707,19430.9,1.7062
10512,51.335,19448.5,1.70915
10530,51.4229,19457.1,1.71091
10548,51.5107,19511.4,1.71552
10566,51.5986,19526.8,1.71621
10584,51.6865,19577.5,1.71991
10602,51.7744,19613.2,1.72514
10620,51.8623,19628,1.72563
10638,51.9502,19674,1.73008
10656,52.0381,19694.8,1.73306
10674,52.126,19715.4,1.73437
10692,52.2139,19764,1.73868
10710,52.3018,19787.5,1.73886
10728,52.3896,19838.9,1.74475
10746,52.4775,19871.6,1.74705
10764,52.5654,19883.7,1.74901
10782,52.6533,19931.5,1.75342
10800,52.7412,19955.7,1.7563
10818,52.8291,19963.9,1.75814
10836,52.917,19995.9,1.76214
10854,53.0049,20024.8,1.76469
10872,53.0928,20073.9,1.76817
10890,53.1807,20132.6,1.77171
10908,53.2686,20145.7,1.7737
10926,53.3564,20185.2,1.77709
10944,53.4443,20199.4,1.77839
10962,53.5322,20232.9,1.78113
10980,53.6201,20276.4,1.78615
10998,53.708,20301.3,1.78673
11016,53.7959,20342.5,1.79209
11034,53.8838,20384.1,1.79568
11052,53.9717,20404.4,1.79729
11070,54.0596,20443.5,1.80057
11088,54.1475,20433.3,1.80054
11106,54.2354,20490.9,1.80434
11124,54.3232,20527.6,1.80863
11142,54.4111,20546.4,1.81116
11160,54.499,20597.2,1.81443
11178,54.5869,20630.1,1.81875
11196,54.6748,20657,1.82073
11214,54.7627,20692,1.82446
11232,54.8506,20703.2,1.82608
11250,54.9385,20756,1.82864
11268,55.0264,20773.6,1.83323
11286,55.1143,20788.5,1.83394
11304,55.2021,20835.2,1.83951
11322,55.29,20881.9,1.84137
11340,55.3779,20890.9,1.84443
11358,55.4658,20940.6,1.84786
11376,55.5537,20967.1,1.84979
11394,55.6416,20985.6,1.85253
11412,55.7295,21026.7,1.85558
11430,55.8174,21036.6,1.858039
11448,55.9053,21092.5,1.86161
11466,55.9932,21128.5,1.86457
11484,56.0811,21143.4,1.86673
11502,56.1689,21193.6,1.8718
11520,56.2568,21210,1.87267
11538,56.3447,21246.7,1.87583
11556,56.4326,21276,1.878355
11574,56.5205,21288.4,1.88058
11592,56.6084,21341.5,1.88529
11610,56.6963,21363.7,1.88734
11628,56.7842,21402.6,1.89104
11646,56.8721,21442.6,1.894096
11664,56.96,21452.3,1.89626
11682,57.0479,21497.6,1.89942
11700,57.1357,21491.9,1.90233
11718,57.2236,21523.8,1.90526
11736,57.3115,21559.9,1.90925
11754,57.3994,21612.4,1.91092
11772,57.4873,21651.9,1.91627
11790,57.5752,21691.3,1.91653
11808,57.6631,21716.3,1.92006
11826,57.751,21755.7,1.92368
11844,57.8389,21773.8,1.92731
11862,57.9268,21787.2,1.9278
11880,58.0146,21827.2,1.93208
11898,58.1025,21855.6,1.93318
11916,58.1904,21906.2,1.93841
11934,58.2783,21940.2,1.93957
11952,58.3662,21966.7,1.94397
11970,58.4541,22007.7,1.94698
11988,58.542,21983.6,1.94833
12006,58.6299,22031.3,1.95213
12024,58.7178,22083.3,1.95435
12042,58.8057,22116,1.95865
12060,58.8936,22148.6,1.96237
12078,58.9814,22192,1.96559
12096,59.0693,22208,1.96765
12114,59.1572,22246.6,1.96971
12132,59.2451,22262,1.97065
12150,59.333,22303.6,1.9754
12168,59.4209,22326.4,1.97792
12186,59.5088,22327.9,1.98017
12204,59.5967,22393.8,1.98488
12222,59.6846,22434.3,1.98685
12240,59.7725,22445.7,1.99105
12258,59.8604,22488.5,1.9933
12276,59.9482,22512.7,1.99534
12294,60.0361,22559,1.9988
12312,60.124,22575,2.001219
12330,60.2119,22591.3,2.00416
12348,60.2998,22646.7,2.00889
12366,60.3877,22687.8,2.010561
12384,60.4756,22710.6,2.01496
12402,60.5635,22755.1,2.01806
12420,60.6514,22748,2.01932
12438,60.7393,22809.9,2.02232
12456,60.8271,22832.1,2.02575
12474,60.915,22849.4,2.02819
12492,61.0029,22901.6,2.03356
12510,61.0908,22927.7,2.03582
12528,61.1787,22970.7,2.03919
12546,61.2666,22992.4,2.04232
12564,61.3545,23015.2,2.04407
12582,61.4424,23050.4,2.04708
12600,61.5303,23079.6,2.0499
12618,61.6182,23097.5,2.05244
12636,61.7061,23139.2,2.05694
12654,61.7939,23160.8,2.05686
12672,61.8818,23198.1,2.06222
12690,61.9697,23238.4,2.06499
12708,62.0576,23259.3,2.06722
12726,62.1455,23293,2.06974
12744,62.2334,23318.7,2.07321
12762,62.3213,23346.4,2.07453
12780,62.4092,23390.4,2.08024
12798,62.4971,23416.6,2.08196
12816,62.585,23455.3,2.08476
12834,62.6729,23489.4,2.08838
12852,62.7607,23505.9,2.08925
12870,62.8486,23547.1,2.09423
12888,62.9365,23550.2,2.09554
12906,63.0244,23574.8,2.09829
12924,63.1123,23619.1,2.10364
12942,63.2002,23649.5,2.10327
12960,63.2881,23694.7,2.10949
12978,63.376,23729.1,2.11162
12996,63.4639,23746.7,2.11386
13014,63.5518,23793.1,2.11642
13032,63.6396,23800,2.1194
13050,63.7275,23838.4,2.12251
13068,63.8154,23862.6,2.12543
13086,63.9033,23876.6,2.12851
13104,63.9912,23936.7,2.1318
13122,64.0791,23963.7,2.13436
13140,64.167,23999.8,2.13767
13158,64.2549,24040.4,2.139375
13176,64.3428,24029.8,2.14141
13194,64.4307,24073.3,2.14499
13212,64.5186,24105.8,2.14765
13230,64.6064,24122.6,2.15233
13248,64.6943,24168.4,2.15444
13266,64.7822,24208,2.15633
13284,64.8701,24225.3,2.15877
13302,64.958,24273.4,2.16318
13320,65.0459,24256.1,2.16537
13338,65.1338,24320.6,2.16896
13356,65.22168,24348.5,2.17105
13374,65.30957,24343.8,2.17479
13392,65.3975,24410.7,2.17959
13410,65.4854,24443.5,2.1803
13428,65.5732,24484.4,2.18398
13446,65.6611,24505.2,2.18825
13464,65.749,24534.6,2.18998
13482,65.8369,24559.6,2.19231
13500,65.9248,24594.3,2.1935
13518,66.0127,24606.8,2.19714
13536,66.1006,24658.6,2.201623
13554,66.1885,24681.5,2.20305
13572,66.2764,24693.8,2.208111
13590,66.3643,24745,2.20978
13608,66.4521,24748.1,2.21195
13626,66.54,24799,2.21575
13644,66.62793,24833.4,2.21829
13662,66.71582,24839.8,2.22232
13680,66.8037,24904,2.2254
13698,66.8916,24919.2,2.22629
13716,66.9795,24943.2,2.22983
13734,67.0674,24999.9,2.23453
13752,67.1553,25009.2,2.235189
13770,67.2432,25044.5,2.23872
13788,67.3311,25073.3,2.24233
13806,67.4189,25090.1,2.2444
13824,67.5068,25126.8,2.249
13842,67.5947,25154.2,2.24985
13860,67.6826,25200.7,2.25468
13878,67.7705,25228.9,2.25442
13896,67.8584,25259.4,2.26085
13914,67.9463,25294.7,2.262331
13932,68.03418,25304.9,2.26482
13950,68.12207,25343.3,2.269
13968,68.21,25383.2,2.2717
13986,68.2979,25398.9,2.27375
14004,68.3857,25444.3,2.27812
14022,68.4736,25478.1,2.28034
14040,68.5615,25502.7,2.28366
14058,68.6494,25537.8,2.28602
14076,68.7373,25530.1,2.28775
14094,68.8252,25585,2.29171
14112,68.9131,25599.8,2.29524
14130,69.001,25637.7,2.29686
14148,69.0889,25681.1,2.30119
14166,69.1768,25709.4,2.30279
14184,69.2646,25739.5,2.3062
14202,69.3525,25785.8,2.310889
14220,69.44043,25774.3,2.31087
14238,69.52832,25818.2,2.31437
14256,69.6162,25857.6,2.31909
14274,69.7041,25885.7,2.3201
14292,69.792,25929.1,2.32666
14310,69.8799,25952.3,2.32705
14328,69.9678,25966.9,2.33032
14346,70.0557,26009.9,2.33204
14364,70.1436,26017.1,2.33501
14382,70.2314,26061.4,2.33906
14400,70.3193,26091.8,2.34167
14418,70.4072,26119.6,2.34363
14436,70.4951,26170,2.349231
14454,70.583,26183.2,2.35056
14472,70.6709,26220.8,2.354625
14490,70.7588,26254.6,2.3554
14508,70.84668,26239.4,2.35835
14526,70.93457,26306.5,2.36144
14544,71.0225,26332.8,2.36685
14562,71.1104,26357.1,2.36779
14580,71.1982,26393.4,2.37225
14598,71.2861,26409.9,2.37252
14616,71.374,26460.6,2.37592
14634,71.4619,26493.2,2.38097
14652,71.5498,26504.5,2.38211
14670,71.6377,26541.2,2.38482
14688,71.7256,26575.3,2.3895
14706,71.8135,26578.9,2.39157
14724,71.9014,26641.1,2.39491
14742,71.9893,26664.1,2.39668
14760,72.0771,26697.5,2.40065
14778,72.165,26730.4,2.40251
14796,72.25293,26758.6,2.40603
14814,72.34082,26791.5,2.40831
14832,72.4287,26814.3,2.41225
14850,72.5166,26814,2.41544
14868,72.6045,26871.8,2.4185
14886,72.6924,26893.4,2.41988
14904,72.7803,26942.2,2.42484
14922,72.8682,26971.1,2.42636
14940,72.9561,26978.8,2.4289
14958,73.0439,27037.1,2.43308
14976,73.1318,27048.2,2.43474
14994,73.2197,27054.7,2.438158
15012,73.3076,27112.2,2.44163
15030,73.3955,27133.1,2.44396
15048,73.4834,27176.1,2.44883
15066,73.5713,27215.7,2.44974
15084,73.65918,27216.8,2.45287
15102,73.74707,27264.4,2.45675
15120,73.835,27274.1,2.458616
15138,73.9229,27300,2.4626
15156,74.0107,27342.3,2.46565
15174,74.0986,27369.1,2.46723
15192,74.1865,27414.7,2.47147
15210,74.2744,27444.3,2.47304
15228,74.3623,27473.5,2.47768
15246,74.4502,27504.2,2.479861
15264,74.5381,27505.5,2.48169
15282,74.626,27547,2.4854
15300,74.7139,27584.4,2.48871
15318,74.8018,27598.4,2.49218
15336,74.8896,27651.1,2.49526
15354,74.9775,27674.5,2.49647
15372,75.06543,27708.5,2.50139
15390,75.15332,27741.8,2.50376
15408,75.2412,27750.3,2.50611
15426,75.3291,27789.9,2.507889
15444,75.417,27825.4,2.51257
15462,75.5049,27834.3,2.514178
15480,75.5928,27889.4,2.518981
15498,75.6807,27919.7,2.52119
15516,75.7686,27940.2,2.52377
15534,75.8564,27982.2,2.52485
15552,75.9443,27994.2,2.52923
15570,76.0322,28023.5,2.53091
15588,76.1201,28040.1,2.53521
15606,76.208,28074.9,2.53793
15624,76.2959,28119.9,2.54132
15642,76.3838,28138.9,2.54293
15660,76.47168,28148.1,2.54764
15678,76.55957,28206.7,2.54903
15696,76.6475,28221.4,2.551
15714,76.7354,28260.3,2.55519
15732,76.8232,28284.6,2.55845
15750,76.9111,28315.2,2.56094
15768,76.999,28353.8,2.56472
15786,77.0869,28375.2,2.56782
15804,77.1748,28403.2,2.57202
15822,77.2627,28438.5,2.57303
15840,77.3506,28464.8,2.57611
15858,77.4385,28503.8,2.57914
15876,77.5264,28516.6,2.58119
15894,77.6143,28543.8,2.584
15912,77.7021,28580.2,2.58815
15930,77.79,28602.6,2.59024
15948,77.87793,28639.7,2.5933
15966,77.96582,28677.3,2.59682
15984,78.0537,28703.2,2.59965
16002,78.1416,28736.2,2.60238
16020,78.2295,28749.3,2.60328
16038,78.3174,28772.2,2.60723
16056,78.4053,28827.7,2.61208
16074,78.4932,28835.9,2.61333
16092,78.5811,28886.7,2.61779
16110,78.6689,28918.3,2.62032
16128,78.7568,28933.9,2.62257
16146,78.8447,28970.9,2.62582
16164,78.9326,28986.3,2.62778
16182,79.0205,29024.7,2.631623
16200,79.1084,29047.7,2.63424
16218,79.1963,29048.5,2.63728
16236,79.28418,29114.3,2.64018
16254,79.37207,29147.7,2.643862
16272,79.46,29164.4,2.64684
16290,79.5479,29200.3,2.64952
16308,79.6357,29203,2.65271
16326,79.7236,29266.5,2.65505
16344,79.8115,29291.2,2.65782
16362,79.8994,29302.7,2.66069
16380,79.9873,29346,2.66458
16398,80.0752,29383.1,2.66665
16416,80.1631,29417.5,2.67091
16434,80.251,29445.9,2.673038
16452,80.3389,29454.7,2.67622
16470,80.4268,29489.9,2.67749
16488,80.5146,29518.4,2.68152
16506,80.6025,29543.3,2.68416
16524,80.69043,29591.3,2.68794
16542,80.77832,29615.8,2.69104
16560,80.8662,29650.3,2.69388
16578,80.9541,29676.3,2.69704
16596,81.042,29677.5,2.69954
16614,81.1299,29723.2,2.70081
16632,81.2178,29750.4,2.70541
16650,81.3057,29790,2.70764
16668,81.3936,29816.9,2.71202
16686,81.4814,29838.9,2.71293
16704,81.5693,29863.8,2.7193
16722,81.6572,29898.3,2.71985
16740,81.7451,29917.8,2.72349
16758,81.833,29953.1,2.72505
16776,81.9209,29934.2,2.72763
16794,82.0088,29987.8,2.73072
16812,82.09668,30040.3,2.73506
16830,82.18457,30063.3,2.73633
16848,82.2725,30104.6,2.74177
16866,82.3604,30127.2,2.74312
16884,82.4482,30145.2,2.74562
16902,82.5361,30185,2.74783
16920,82.624,30198.5,2.75093
16938,82.7119,30210.3,2.75382
16956,82.7998,30280.1,2.759424
16974,82.8877,30296,2.75975
16992,82.9756,30328.7,2.7647
17010,83.0635,30361.2,2.76786
17028,83.1514,30360.3,2.76978
17046,83.2393,30416.6,2.77194
17064,83.3271,30414.8,2.77311
17082,83.415,30467.3,2.778743
17100,83.50293,30494.4,2.78274
17118,83.59082,30517.2,2.78392
17136,83.6787,30558.4,2.78694
17154,83.7666,30584,2.78863
17172,83.8545,30592.6,2.79226
17190,83.9424,30644.7,2.79447
17208,84.0303,30660.6,2.79814
17226,84.1182,30684.4,2.80165
17244,84.2061,30730.6,2.80453
17262,84.2939,30748.4,2.80818
17280,84.3818,30794.2,2.81222
17298,84.4697,30812,2.81316
17316,84.5576,30845.5,2.81573
17334,84.6455,30877.6,2.81908
17352,84.7334,30870.8,2.82191
17370,84.8213,30921,2.82492
17388,84.90918,30945.7,2.8281
17406,84.99707,30981.7,2.83228
17424,85.085,31024.3,2.83586
17442,85.1729,31038,2.837327
17460,85.2607,31068.7,2.839572
17478,85.3486,31103.5,2.8441
17496,85.4365,31095.4,2.84565
17514,85.5244,31141,2.84735
17532,85.6123,31178.4,2.85156
17550,85.7002,31203.8,2.85357
17568,85.7881,31251.2,2.85865
17586,85.876,31265.3,2.85988
17604,85.9639,31300.2,2.86395
17622,86.0518,31336.4,2.86594
17640,86.1396,31347.2,2.86757
17658,86.2275,31386.7,2.87294
17676,86.31543,31404.3,2.87501
17694,86.40332,31426.4,2.87697
17712,86.4912,31470.8,2.88097
17730,86.5791,31491.1,2.88229
17748,86.667,31522.6,2.88797
17766,86.7549,31555.8,2.89013
17784,86.8428,31567.2,2.892019
17802,86.9307,31613.3,2.89559
17820,87.0186,31591.6,2.89823
17838,87.1064,31636.1,2.89901
17856,87.1943,31702.1,2.9047
17874,87.2822,31699.9,2.90551
17892,87.3701,31753,2.91192
17910,87.458,31782.2,2.91269
17928,87.5459,31789.6,2.915947
17946,87.6338,31835.9,2.91863
17964,87.72168,31853.9,2.92179
17982,87.80957,31881.8,2.92491
18000,87.8975,31917.7,2.9281
18018,87.9854,31939.1,2.93016
18036,88.0732,31972.4,2.93315
18054,88.1611,32007.6,2.93745
18072,88.249,32027.8,2.93962
18090,88.3369,32058.6,2.94126
18108,88.4248,32074.3,2.94473
18126,88.5127,32086,2.947437
18144,88.6006,32140.4,2.9516
18162,88.6885,32161.5,2.95297
18180,88.7764,32203,2.9576
18198,88.8643,32226.1,2.95897
18216,88.9521,32253.3,2.96348
18234,89.04,32289.6,2.96549
18252,89.12793,32285.3,2.96838
18270,89.21582,32336.2,2.97071
18288,89.3037,32363.7,2.97262
18306,89.3916,32394,2.97711
18324,89.4795,32430.5,2.98079
18342,89.5674,32452.8,2.98326
18360,89.6553,32464.9,2.98625
18378,89.7432,32504.2,2.98776
18396,89.8311,32502.1,2.9914
18414,89.9189,32555.9,2.99417
18432,90.0068,32585.4,2.99745
18450,90.0947,32617.3,2.99957
18468,90.1826,32649.6,3.00468
18486,90.2705,32672.6,3.00649
18504,90.3584,32713.6,3.01035
18522,90.4463,32730.7,3.01145
18540,90.53418,32737.4,3.0138
18558,90.62207,32772.5,3.01796
18576,90.71,32809.5,3.02117
18594,90.7979,32845.4,3.0237
18612,90.8857,32873.2,3.02795
18630,90.9736,32900.1,3.02945
18648,91.0615,32927.2,3.03401
18666,91.1494,32955,3.03652
18684,91.2373,32939.3,3.03785
18702,91.3252,33015.8,3.04295
18720,91.4131,33011.7,3.04381
18738,91.501,33051.4,3.0481
18756,91.5889,33099.2,3.050652
18774,91.6768,33115.9,3.05345
18792,91.7646,33156.7,3.05731
18810,91.8525,33183.4,3.05905
18828,91.94043,33195.8,3.06263
18846,92.02832,33228.5,3.06521
18864,92.1162,33249.8,3.0674
18882,92.2041,33285.4,3.07084
18900,92.292,33319,3.07564
18918,92.3799,33340.5,3.07673
18936,92.4678,33383.1,3.07986
18954,92.5557,33406.7,3.08109
18972,92.6436,33432.5,3.08507
18990,92.7314,33473.7,3.08988
19008,92.8193,33473.4,3.09045
19026,92.9072,33509.9,3.0948
19044,92.9951,33548.5,3.09773
19062,93.083,33569.4,3.10057
19080,93.1709,33613.1,3.10528
19098,93.2588,33635.9,3.10722
19116,93.34668,33640.4,3.10832
19134,93.43457,33695.6,3.11327
19152,93.5225,33699.8,3.11461
19170,93.6104,33732.5,3.11848
19188,93.6982,33765.5,3.12242
19206,93.7861,33782.9,3.12314
19224,93.874,33834.6,3.1281
19242,93.9619,33856.6,3.1292
19260,94.0498,33879.1,3.1335
19278,94.1377,33909.1,3.13476
19296,94.2256,33910.7,3.13797
19314,94.3135,33941.4,3.1411
19332,94.4014,33994.6,3.14611
19350,94.4893,34022.2,3.14633
19368,94.5771,34050.4,3.1514
19386,94.665,34071.5,3.15494
19404,94.75293,34101.4,3.15725
19422,94.84082,34131.7,3.16011
19440,94.9287,34150.5,3.16161
19458,95.0166,34183.3,3.16555
19476,95.1045,34210.1,3.16906
19494,95.1924,34226.5,3.17081
19512,95.2803,34275.1,3.1743
19530,95.3682,34300.3,3.17723
19548,95.4561,34317.4,3.17911
19566,95.5439,34357.8,3.18272
19584,95.6318,34351.3,3.18561
19602,95.7197,34397.4,3.18907
19620,95.8076,34436.2,3.19185
19638,95.8955,34440,3.19482
19656,95.9834,34490.4,3.19793
19674,96.0713,34498.2,3.20033
19692,96.15918,34528.4,3.20324
19710,96.24707,34567.4,3.206744
19728,96.335,34578.3,3.20918
19746,96.4229,34624.6,3.21269
19764,96.5107,34633.3,3.2158
19782,96.5986,34666.7,3.21719
19800,96.6865,34703.6,3.22124
19818,96.7744,34727,3.22373
19836,96.8623,34752.6,3.2262
19854,96.9502,34785.1,3.23091
19872,97.0381,34804.4,3.23133
19890,97.126,34834.9,3.23621
19908,97.2139,34834.4,3.23768
19926,97.3018,34881.2,3.24163
19944,97.3896,34918.7,3.24588
19962,97.4775,34944,3.2475
19980,97.56543,34967.6,3.25138
19998,97.65332,34995.1,3.25246
20016,97.7412,35027.8,3.25708
20034,97.8291,35053.9,3.25902
20052,97.917,35057.8,3.26079
20070,98.0049,35104.6,3.26444
20088,98.0928,35135.3,3.2684
20106,98.1807,35159,3.27098
20124,98.2686,35190.7,3.27355
20142,98.3564,35219,3.2762
20160,98.4443,35242.8,3.28055
20178,98.5322,35282.3,3.28375
20196,98.6201,35280.2,3.28383
20214,98.708,35322.9,3.28718
20232,98.7959,35356.9,3.29113
20250,98.8838,35370.3,3.29364
20268,98.97168,35411.4,3.29769
20286,99.05957,35436.4,3.29915
20304,99.1475,35456.9,3.30244
20322,99.2354,35489.2,3.30513
20340,99.3232,35512,3.30942
20358,99.4111,35541.6,3.31277
20376,99.499,35565.5,3.31458
20394,99.5869,35573.2,3.31746
20412,99.6748,35627,3.32085
20430,99.7627,35645,3.32323
20448,99.8506,35674.7,3.32696
20466,99.9385,35702.6,3.32932
20484,100.026,35694.4,3.33149
20502,100.114,35759.3,3.33498
20520,100.202,35776.9,3.33733
20538,100.29,35795.1,3.33986
20556,100.378,35832,3.34368
20574,100.466,35861,3.34594
20592,100.554,35885.8,3.3494
20610,100.6416,35917.1,3.35141
20628,100.729,35922.2,3.35419
20646,100.817,35964.6,3.35801
20664,100.905,35987,3.36099
20682,100.993,36025.5,3.36365
20700,101.081,36055.5,3.36783
20718,101.169,36067.4,3.36948
20736,101.257,36101.8,3.3741
20754,101.345,36133.4,3.37677
20772,101.433,36152,3.38033
20790,101.521,36175.9,3.37998
20808,101.6084,36204.8,3.38481
20826,101.696,36228.5,3.38709
20844,101.784,36270.5,3.39126
20862,101.872,36292.9,3.39402
20880,101.96,36311.6,3.39634
20898,102.048,36342.5,3.39936
20916,102.136,36345.5,3.40179
20934,102.224,36379.7,3.40409
20952,102.312,36403,3.40729
20970,102.399,36442.6,3.41052
20988,102.4873,36477.8,3.41455
21006,102.5752,36506.9,3.41637
21024,102.663,36528.5,3.42035
21042,102.751,36553.8,3.42217
21060,102.839,36567.6,3.42526
21078,102.927,36605.7,3.42841
21096,103.015,36622.8,3.43088
21114,103.103,36654.8,3.43438
21132,103.19,36686.7,3.43802
21150,103.278,36708.8,3.44042
21168,103.366,36744.6,3.44355
21186,103.4541,36762,3.44523
21204,103.542,36784.2,3.44891
21222,103.63,36817.6,3.45242
21240,103.718,36837.4,3.45556
21258,103.806,36863.3,3.45668
21276,103.894,36891.9,3.462651
21294,103.981,36916.2,3.46412
21312,104.069,36948.8,3.46737
21330,104.157,36966.6,3.47009
21348,104.245,37001,3.47274
21366,104.333,37021.9,3.47628
21384,104.4209,37043.7,3.47831
21402,104.509,37082.1,3.48104
21420,104.597,37102.4,3.48495
21438,104.685,37126.5,3.48828
21456,104.772,37160.4,3.49135
21474,104.86,37178.4,3.49225
21492,104.948,37192.2,3.495914
21510,105.036,37238.8,3.50012
21528,105.124,37240.5,3.5009
21546,105.212,37268.6,3.50333
21564,105.2998,37300.9,3.5076
21582,105.3877,37326.6,3.50996
21600,105.476,37368.2,3.51497
21618,105.563,37390.4,3.51554
21636,105.651,37404.1,3.51967
21654,105.739,37441.2,3.52225
21672,105.827,37452.6,3.52525
21690,105.915,37480.2,3.52731
21708,106.003,37511.4,3.5319
21726,106.091,37542.9,3.53433
21744,106.179,37568,3.53692
21762,106.2666,37582,3.53835
21780,106.354,37627.8,3.543128
21798,106.442,37652.7,3.54632
21816,106.53,37645.8,3.54762
21834,106.618,37698.2,3.55241
21852,106.706,37704.4,3.55415
21870,106.794,37732.2,3.55604
21888,106.882,37779.6,3.561028
21906,106.97,37792.6,3.56467
21924,107.058,37827.3,3.56755
21942,107.146,37854.5,3.56988
21960,107.2334,37864.9,3.57348
21978,107.321,37896.4,3.57413
21996,107.409,37913.5,3.577842
22014,107.497,37950.9,3.58166
22032,107.585,37979.9,3.58531
22050,107.673,37993.4,3.58556
22068,107.761,38031,3.59129
22086,107.849,38051.4,3.59222
22104,107.937,38064.8,3.5954
22122,108.024,38091.1,3.59811
22140,108.1123,38117.9,3.60113
22158,108.2002,38148.7,3.60473
22176,108.288,38179.1,3.60734
22194,108.376,38186.9,3.609973
22212,108.464,38226.6,3.61297
22230,108.552,38253.7,3.61668
22248,108.64,38268.8,3.62049
22266,108.728,38293.8,3.62139
22284,108.815,38295.9,3.6243
22302,108.903,38329.5,3.62829
22320,108.991,38362.9,3.63068
22338,109.0791,38379.4,3.63283
22356,109.167,38417.2,3.63686
22374,109.255,38444.6,3.63876
22392,109.343,38467.1,3.64252
22410,109.431,38488.7,3.64534
22428,109.519,38505.7,3.64777
22446,109.606,38534,3.65007
22464,109.694,38563.1,3.654547
22482,109.782,38585.7,3.65675
22500,109.87,38612.6,3.66007
22518,109.958,38640.9,3.66363
22536,110.0459,38650.4,3.66618
22554,110.134,38666.4,3.66706
22572,110.222,38690.8,3.67165
22590,110.31,38732,3.67378
22608,110.397,38749.5,3.678525
22626,110.485,38774.6,3.67925
22644,110.573,38801.3,3.68306
22662,110.661,38823.5,3.68688
22680,110.749,38854.8,3.68985
22698,110.837,38877.3,3.69195
22716,110.9248,38888.7,3.69485
22734,111.0127,38930,3.69943
22752,111.101,38945.4,3.70178
22770,111.188,38963.1,3.70367
22788,111.276,39002,3.70661
22806,111.364,39023.3,3.70919
22824,111.452,39048.8,3.712893
22842,111.54,39072.2,3.71528
22860,111.628,39083.4,3.7186
22878,111.716,39121,3.72073
22896,111.804,39140.9,3.72401
22914,111.8916,39167.6,3.726203
22932,111.979,39198.7,3.73108
22950,112.067,39216.3,3.73205
22968,112.155,39240.5,3.73786
22986,112.243,39272.6,3.73853
23004,112.331,39290.3,3.74332
23022,112.419,39302.6,3.74474
23040,112.507,39323.9,3.74836
23058,112.595,39356.3,3.75024
23076,112.683,39387.6,3.75299
23094,112.771,39403.2,3.75594
23112,112.8584,39443.8,3.75986
23130,112.946,39462.7,3.76206
23148,113.034,39475.1,3.76589
23166,113.122,39494,3.76667
23184,113.21,39505.7,3.77161
23202,113.298,39544.7,3.77362
23220,113.386,39574.7,3.77736
23238,113.474,39589.9,3.78031
23256,113.562,39617.5,3.78382
23274,113.649,39641.5,3.78592
23292,113.7373,39663.4,3.78876
23310,113.8252,39693.5,3.79091
23328,113.913,39691.6,3.79356
23346,114.001,39732.2,3.79748
23364,114.089,39763.9,3.79982
23382,114.177,39779.4,3.80388
23400,114.265,39807.8,3.80706
23418,114.353,39824.8,3.80803
23436,114.44,39854,3.81213
23454,114.528,39879.9,3.81573
23472,114.616,39893.6,3.81881
23490,114.7041,39934.7,3.82143
23508,114.792,39952.2,3.82448
23526,114.88,39985.9,3.82708
23544,114.968,40010.1,3.83123
23562,115.056,40024.3,3.83326
23580,115.144,40048.6,3.83693
23598,115.231,40074.9,3.83719
23616,115.319,40081.2,3.841917
23634,115.407,40117.5,3.84335
23652,115.495,40143,3.84862
23670,115.583,40167.5,3.852375
23688,115.6709,40187.4,3.85377
23706,115.759,40205.6,3.85679
23724,115.847,40235,3.85953
23742,115.935,40255.6,3.86141
23760,116.022,40267.9,3.86463
23778,116.11,40303.5,3.86732
23796,116.198,40325.3,3.8705
23814,116.286,40347.1,3.87362
23832,116.374,40380.2,3.87609
23850,116.462,40388,3.87875
23868,116.5498,40425.5,3.88312
23886,116.6377,40441.1,3.88492
23904,116.726,40458.4,3.88822
23922,116.813,40484.8,3.889503
23940,116.901,40510.1,3.89404
23958,116.989,40530.9,3.89622
23976,117.077,40556.2,3.90074
23994,117.165,40567.5,3.90301
24012,117.253,40603.3,3.90617
24030,117.341,40624.4,3.90688
24048,117.429,40637.7,3.91095
24066,117.5166,40668.5,3.91472
24084,117.604,40675.5,3.91845
24102,117.692,40722.3,3.92169
24120,117.78,40743,3.92398
24138,117.868,40768.1,3.924902
24156,117.956,40786.1,3.93071
24174,118.044,40807.1,3.93174
24192,118.132,40813,3.93443
24210,118.22,40857.6,3.9383
24228,118.308,40874.1,3.94088
24246,118.396,40899.9,3.94407
24264,118.4834,40925.9,3.94738
24282,118.571,40947.4,3.95
24300,118.659,40981.9,3.95252
24318,118.747,40994.1,3.95467
24336,118.835,41014.7,3.95895
24354,118.923,41049.9,3.962224
24372,119.011,41055.9,3.96399
24390,119.099,41086,3.96824
24408,119.187,41107.2,3.970993
24426,119.274,41124.2,3.97244
24444,119.3623,41154.5,3.97698
24462,119.4502,41173,3.97817
24480,119.538,41192.4,3.9825
24498,119.626,41225.5,3.98491
24516,119.714,41226.9,3.98761
24534,119.802,41267,3.99137
24552,119.89,41294.6,3.99373
24570,119.978,41304.5,3.9961
24588,120.065,41337.4,4.00076
24606,120.153,41357.3,4.00298
24624,120.241,41386.1,4.00746
24642,120.3291,41403.5,4.00701
24660,120.417,41407.6,4.0116
24678,120.505,41450.5,4.01395
24696,120.593,41473.1,4.01647
24714,120.681,41488.6,4.01961
24732,120.769,41513.4,4.02241
24750,120.856,41536,4.02533
24768,120.944,41559.5,4.02758
24786,121.032,41581.4,4.03141
24804,121.12,41584.8,4.03437
24822,121.208,41622.7,4.0366
24840,121.2959,41628.7,4.04008
24858,121.384,41666.2,4.04276
24876,121.472,41688,4.04739
24894,121.56,41708.2,4.04882
24912,121.647,41737.7,4.05358
24930,121.735,41744.1,4.05465
24948,121.823,41759.6,4.05882
24966,121.911,41803,4.06214
24984,121.999,41816.1,4.06464
25002,122.087,41847.8,4.06765
25020,122.1748,41870.2,4.07032
25038,122.2627,41889,4.07312
25056,122.351,41912.8,4.07548
25074,122.438,41925.6,4.07823
25092,122.526,41938.4,4.08173
25110,122.614,41968.2,4.08436
25128,122.702,41978.3,4.08858
25146,122.79,42016.4,4.09164
25164,122.878,42035.3,4.09396
25182,122.966,42056.6,4.09679
25200,123.054,42074,4.10059
25218,123.1416,42100.8,4.10249
25236,123.229,42111.7,4.10568
25254,123.317,42137.5,4.10657
25272,123.405,42153.5,4.11145
25290,123.493,42176.1,4.11443
25308,123.581,42189.6,4.11626
25326,123.669,42216.2,4.11908
25344,123.757,42244.8,4.1224
25362,123.845,42267.5,4.12598
25380,123.933,42271.2,4.12874
25398,124.021,42305.2,4.13102
25416,124.1084,42320.5,4.13561
25434,124.196,42350,4.13779
25452,124.284,42374.5,4.140605
25470,124.372,42390,4.14327
25488,124.46,42412.6,4.14762
25506,124.548,42433.1,4.14918
25524,124.636,42460.1,4.15324
25542,124.724,42471.9,4.15597
25560,124.812,42491,4.15842
25578,124.899,42520.6,4.16113
25596,124.9873,42539.2,4.16444
25614,125.0752,42560.6,4.16628
25632,125.163,42582,4.17144
25650,125.251,42603.9,4.17228
25668,125.339,42612.5,4.17534
25686,125.427,42639.1,4.17735
25704,125.515,42649.2,4.181088
25722,125.603,42680.8,4.18433
25740,125.69,42694.9,4.18802
25758,125.778,42717.5,4.19073
25776,125.866,42741.1,4.19438
25794,125.9541,42758.9,4.19537
25812,126.042,42783.3,4.19882
25830,126.13,42803.1,4.2025
25848,126.218,42801.4,4.20568
25866,126.306,42831.2,4.20739
25884,126.394,42838.2,4.21083
25902,126.481,42854.1,4.21388
25920,126.569,42863.9,4.21815
25938,126.657,42864.1,4.21843
25956,126.745,42892.3,4.22205
25974,126.833,42901.5,4.22531
25992,126.9209,42895.8,4.22886
25995,126.936,7234.58,4.42814