File: ASM109_2021_data/MTS/Quasi/MTS_quasi_2.csv
,Time [s],Load [N],Displacement [mm]
0,0.0078125,-414.314,0.000231721
17,0.0908203,-353.136,0.00181815
34,0.173828,-330.792,0.00474689
51,0.256836,-285.444,0.00770497
68,0.339844,-270.491,0.0107836
85,0.422852,-234.753,0.0134853
102,0.505859,-204.846,0.0130361
119,0.588867,-146.224,0.0195864
136,0.671875,-129.61,0.0220614
153,0.754883,-83.952,0.0232503
170,0.837891,-54.8986,0.0254001
187,0.920898,-28.772,0.0271906
204,1.00391,11.0839,0.0319971
221,1.08691,57.5924,0.0347918
238,1.16992,82.1715,0.0369835
255,1.25293,122.554,0.0393743
272,1.33594,133.592,0.042244
289,1.41895,166.001,0.0459443
306,1.50195,219.813,0.0474497
323,1.58496,263.554,0.0504667
340,1.66797,287.268,0.0539369
357,1.75098,317.767,0.0559064
374,1.83398,376.678,0.05994866
391,1.91699,385.276,0.0618326
408,2.0,444.197,0.06687963
425,2.08301,475.424,0.0679636
442,2.16602,508.555,0.0698518
459,2.24902,542.976,0.0735038
476,2.33203,561.291,0.0749735
493,2.41504,596.338,0.0796489
510,2.49805,642.05,0.0808808
527,2.58105,676.069,0.084842
544,2.66406,703.529,0.0856367
561,2.74707,713.378,0.0899159
578,2.83008,758.414,0.0913726
595,2.91309,765.537,0.0949152
612,2.99609,856.688,0.100324
629,3.0791,881.347,0.10111
646,3.16211,917.673,0.1022676
663,3.24512,948.688,0.105418
680,3.328125,942.947,0.108681
697,3.41113,1027.79,0.112763
714,3.49414,1057.61,0.114523
731,3.57715,1077.14,0.117321
748,3.66016,1131.49,0.119805
765,3.74316,1133.06,0.122725
782,3.82617,1196.46,0.125406
799,3.90918,1212.04,0.12698
816,3.99219,1274.59,0.131222
833,4.0752,1307.44,0.134603
850,4.1582,1329.4,0.135625
867,4.24121,1371.17,0.139074
884,4.32422,1379.81,0.140921
901,4.40723,1432.07,0.144819
918,4.49023,1473.7,0.147307
935,4.57324,1505.46,0.150112
952,4.65625,1540.34,0.152909
969,4.73926,1553.4,0.154635
986,4.82227,1614.34,0.157524
1003,4.90527,1642.05,0.160407
1020,4.98828,1687.04,0.164154
1037,5.07129,1712.73,0.167313
1054,5.1543,1747.43,0.16935
1071,5.2373,1793.99,0.172984
1088,5.32031,1794.48,0.1731049
1105,5.40332,1838.29,0.179066
1122,5.48633,1893.85,0.181435
1139,5.56934,1914.57,0.182506
1156,5.65234,1956.86,0.185964
1173,5.73535,1938.73,0.186531
1190,5.81836,2033.83,0.190014
1207,5.90137,2058.25,0.194953
1224,5.984375,2094.31,0.198126
1241,6.06738,2130.87,0.200525
1258,6.15039,2158.98,0.20186
1275,6.2334,2211.51,0.206161
1292,6.31641,2211.85,0.2068667
1309,6.39941,2260.69,0.210535
1326,6.48242,2300.46,0.213656
1343,6.56543,2331.92,0.2170326
1360,6.64844,2376.24,0.221107
1377,6.73145,2328.28,0.220478
1394,6.81445,2445.17,0.225785
1411,6.89746,2472.43,0.227722
1428,6.98047,2505.19,0.230384
1445,7.06348,2552.44,0.233148
1462,7.14648,2559.7,0.234688
1479,7.22949,2616.51,0.238815
1496,7.3125,2629.24,0.240929
1513,7.39551,2679.74,0.244326
1530,7.47852,2728.45,0.248215
1547,7.56152,2748.29,0.250563
1564,7.64453,2781.4,0.252164
1581,7.72754,2789.77,0.255124
1598,7.81055,2848.67,0.25917
1615,7.89355,2880.79,0.2622551
1632,7.97656,2909.32,0.2634317
1649,8.05957,2965.43,0.2671136
1666,8.14258,2961.48,0.268943
1683,8.22559,3023.7,0.272958
1700,8.30859,3039.19,0.274475
1717,8.3916,3082.06,0.277545
1734,8.47461,3124.15,0.280115
1751,8.55762,3158.52,0.283166
1768,8.640625,3177.67,0.287757
1785,8.72363,3181.48,0.287103
1802,8.80664,3231.29,0.290588
1819,8.88965,3293.87,0.294161
1836,8.97266,3317.64,0.29684
1853,9.05566,3358.41,0.299056
1870,9.13867,3333.51,0.301085
1887,9.22168,3426.8,0.305813
1904,9.30469,3447.14,0.308223
1921,9.3877,3488.48,0.309829
1938,9.4707,3533.41,0.312849
1955,9.55371,3526.72,0.316699
1972,9.63672,3608.54,0.31984
1989,9.71973,3625.25,0.320358
2006,9.80273,3666.32,0.3252143
2023,9.88574,3701.9,0.328349
2040,9.96875,3709.49,0.329014
2057,10.0518,3774.41,0.333539
2074,10.1348,3791.31,0.333942
2091,10.2178,3829.11,0.338981
2108,10.3008,3856.82,0.340555
2125,10.3838,3894.01,0.344884
2142,10.4668,3945.35,0.346244
2159,10.5498,3961.4,0.349897
2176,10.6328,4000.1,0.351918
2193,10.7158,4028.12,0.353453
2210,10.7988,4060.05,0.356392
2227,10.8818,4104.97,0.361107
2244,10.9648,4109.17,0.362752
2261,11.0479,4166.71,0.366802
2278,11.1309,4162.11,0.367363
2295,11.2139,4227.7,0.372198
2312,11.2969,4268.01,0.374871
2329,11.3799,4302,0.376014
2346,11.4629,4342.81,0.378509
2363,11.5459,4326.81,0.381126
2380,11.6289,4408.81,0.387447
2397,11.7119,4433.26,0.387152
2414,11.7949,4477.43,0.391127
2431,11.8779,4518.45,0.393091
2448,11.9609,4517.94,0.396978
2465,12.0439,4588.28,0.3998242
2482,12.127,4607.69,0.399254
2499,12.21,4634.84,0.405127
2516,12.293,4673.15,0.40695
2533,12.376,4704.74,0.410633
2550,12.459,4762.88,0.414543
2567,12.542,4752.78,0.414605
2584,12.625,4801.94,0.419113
2601,12.708,4829.05,0.42123
2618,12.791,4849.61,0.42322
2635,12.874,4918.21,0.42701
2652,12.957,4924.23,0.429293
2669,13.04,4981.55,0.431551
2686,13.123,5010.51,0.433259
2703,13.2061,5042.41,0.437857
2720,13.2891,5079.64,0.442095
2737,13.37207,5112.42,0.442448
2754,13.4551,5150.66,0.447591
2771,13.5381,5121.7,0.449237
2788,13.6211,5203.06,0.450514
2805,13.7041,5233.57,0.454152
2822,13.7871,5281.23,0.457027
2839,13.8701,5321.98,0.460673
2856,13.9531,5340.18,0.461696
2873,14.0361,5367.52,0.464908
2890,14.1191,5406.29,0.467204
2907,14.2021,5428.81,0.47171
2924,14.2852,5482.22,0.474305
2941,14.3682,5489.26,0.475915
2958,14.4512,5545.16,0.477621
2975,14.53418,5535.45,0.481044
2992,14.6172,5608.77,0.484878
3009,14.7002,5630.38,0.486352
3026,14.7832,5670.39,0.491207
3043,14.8662,5714.01,0.493302
3060,14.9492,5711.79,0.494987
3077,15.0322,5775.03,0.4968943
3094,15.1152,5789.62,0.50097
3111,15.1982,5831.67,0.503035
3128,15.28125,5883.29,0.507286
3145,15.3643,5907.16,0.509718
3162,15.4473,5941.3,0.511819
3179,15.5303,5969.53,0.51296
3196,15.6133,5987.89,0.517514
3213,15.6963,6046.35,0.521389
3230,15.7793,6066.04,0.523172
3247,15.8623,6115.58,0.526681
3264,15.9453,6121.98,0.527268
3281,16.02832,6159.79,0.530519
3298,16.1113,6202.33,0.534147
3315,16.1943,6232.74,0.536725
3332,16.2773,6285.13,0.540452
3349,16.3604,6291.33,0.542333
3366,16.4434,6352.76,0.54756
3383,16.5264,6352.85,0.547294
3400,16.6094,6391.14,0.550814
3417,16.6924,6430,0.554302
3434,16.7754,6474.14,0.556148
3451,16.8584,6528.44,0.560693
3468,16.9414,6535.26,0.563061
3485,17.0244,6579.08,0.565776
3502,17.1074,6614.38,0.568375
3519,17.19043,6627.02,0.57121
3536,17.2734,6684.3,0.57475
3553,17.3564,6705.59,0.577024
3570,17.4395,6752.42,0.579574
3587,17.5225,6774.23,0.580905
3604,17.6055,6801.49,0.585336
3621,17.6885,6855.69,0.588531
3638,17.7715,6858.94,0.589493
3655,17.8545,6910.92,0.594191
3672,17.9375,6939.49,0.596011
3689,18.0205,6966.23,0.600531
3706,18.1035,7009.21,0.600578
3723,18.1865,7032.5,0.605367
3740,18.2695,7068.61,0.60911
3757,18.3525,7076.82,0.608684
3774,18.4355,7124.7,0.612546
3791,18.5186,7156.25,0.614997
3808,18.6016,7172.58,0.619216
3825,18.68457,7231.34,0.621735
3842,18.7676,7269.26,0.623283
3859,18.8506,7310.26,0.626177
3876,18.9336,7331.19,0.629368
3893,19.0166,7362.59,0.632993
3910,19.0996,7404.83,0.635515
3927,19.1826,7417.45,0.637292
3944,19.2656,7464.9,0.640479
3961,19.3486,7453.59,0.641221
3978,19.4316,7526.84,0.645057
3995,19.5146,7552.06,0.649946
4012,19.5977,7586.85,0.650675
4029,19.6807,7629.36,0.652466
4046,19.7637,7617.37,0.655118
4063,19.84668,7694.22,0.6602602
4080,19.9297,7713.44,0.661951
4097,20.0127,7743.66,0.6657024
4114,20.0957,7793.34,0.666692
4131,20.1787,7814.86,0.67067
4148,20.2617,7856.87,0.674144
4165,20.3447,7864.75,0.6746
4182,20.4277,7903,0.678281
4199,20.5107,7945.85,0.681234
4216,20.59375,7958.26,0.684746
4233,20.6768,8032.67,0.687667
4250,20.7598,8032.02,0.688155
4267,20.8428,8075.25,0.693095
4284,20.9258,8093.47,0.692083
4301,21.0088,8127.72,0.698621
4318,21.0918,8184.86,0.700719
4335,21.1748,8177.31,0.702817
4352,21.2578,8250.49,0.706752
4369,21.34082,8261.19,0.707141
4386,21.4238,8283.42,0.712254
4403,21.5068,8322.72,0.716288
4420,21.5898,8360.56,0.718521
4437,21.6729,8412.47,0.720999
4454,21.7559,8437.04,0.721049
4471,21.8389,8447.69,0.726323
4488,21.9219,8503.96,0.727775
4505,22.0049,8529.23,0.73133
4522,22.0879,8571.09,0.732427
4539,22.1709,8599.04,0.73792
4556,22.2539,8631.69,0.741144
4573,22.3369,8646.6,0.741628
4590,22.4199,8683.36,0.743473
4607,22.50293,8732.23,0.748443
4624,22.5859,8738.01,0.749646
4641,22.6689,8802.97,0.7546038
4658,22.752,8814.48,0.75433
4675,22.835,8841.69,0.759108
4692,22.918,8886.83,0.76121
4709,23.001,8906.33,0.763421
4726,23.084,8952.81,0.766848
4743,23.167,8953.51,0.768543
4760,23.25,9024.44,0.774252
4777,23.333,9044.47,0.7754727
4794,23.416,9064.21,0.777304
4811,23.499,9124,0.782165
4828,23.582,9129.01,0.784139
4845,23.665,9203.23,0.787535
4862,23.748,9191.12,0.786374
4879,23.8311,9239.76,0.792695
4896,23.9141,9271.13,0.794771
4913,23.99707,9307.27,0.79774
4930,24.0801,9355.34,0.800795
4947,24.1631,9368,0.803201
4964,24.2461,9400.09,0.806277
4981,24.3291,9440.04,0.807571
4998,24.4121,9453.82,0.811914
5015,24.4951,9521.1,0.81396
5032,24.5781,9526.38,0.816997
5049,24.6611,9565.17,0.820227
5066,24.7441,9599.74,0.821622
5083,24.8271,9620.2,0.824282
5100,24.9102,9650.86,0.827841
5117,24.9932,9694.53,0.830256
5134,25.0762,9749.75,0.834262
5151,25.15918,9756.68,0.834959
5168,25.2422,9795.12,0.839592
5185,25.3252,9822.45,0.841519
5202,25.4082,9849.34,0.843723
5219,25.4912,9893.5,0.848208
5236,25.5742,9913.95,0.849461
5253,25.6572,9960.64,0.853296
5270,25.7402,10001,0.855639
5287,25.8232,9996.06,0.857673
5304,25.90625,10054.6,0.861493
5321,25.9893,10054,0.863442
5338,26.0723,10134.3,0.86683
5355,26.1553,10149.3,0.87023
5372,26.2383,10168.4,0.872676
5389,26.3213,10217.3,0.874262
5406,26.4043,10222.5,0.876866
5423,26.4873,10278.9,0.880444
5440,26.5703,10307.8,0.882431
5457,26.65332,10352.1,0.88676
5474,26.7363,10369.1,0.88689
5491,26.8193,10381.9,0.892359
5508,26.9023,10442.2,0.896112
5525,26.9854,10468.5,0.898506
5542,27.0684,10511.3,0.9018386
5559,27.1514,10540.7,0.902956
5576,27.2344,10544.8,0.904607
5593,27.3174,10601.5,0.907613
5610,27.4004,10615.6,0.909693
5627,27.4834,10668.7,0.916512
5644,27.5664,10692.3,0.91717
5661,27.6494,10726.7,0.919746
5678,27.7324,10768.1,0.922372
5695,27.81543,10769.6,0.925459
5712,27.8984,10817.9,0.928253
5729,27.9814,10853.8,0.930357
5746,28.0645,10885.9,0.933674
5763,28.1475,10925.4,0.936709
5780,28.2305,10941.7,0.937527
5797,28.3135,10966.9,0.941275
5814,28.3965,11004,0.942412
5831,28.4795,11063.6,0.948401
5848,28.5625,11051.4,0.948191
5865,28.6455,11109.2,0.952461
5882,28.7285,11140.3,0.955173
5899,28.8115,11158.6,0.958281
5916,28.8945,11214.5,0.961684
5933,28.9775,11239.5,0.963398
5950,29.0605,11275.3,0.966749
5967,29.1436,11303.4,0.969199
5984,29.2266,11298.7,0.97126
6001,29.30957,11369.3,0.973768
6018,29.3926,11385.4,0.975919
6035,29.4756,11433.1,0.9798879
6052,29.5586,11463.5,0.982848
6069,29.6416,11492.3,0.984673
6086,29.7246,11526.9,0.988315
6103,29.8076,11538.7,0.990346
6120,29.8906,11604.4,0.994504
6137,29.9736,11624.2,0.995183
6154,30.0566,11658.8,0.998977
6171,30.1396,11687.2,1.00149
6188,30.2227,11699.2,1.0036
6205,30.3057,11739.6,1.00717
6222,30.3887,11781.9,1.01002
6239,30.47168,11824.5,1.01356
6256,30.5547,11835.4,1.01456
6273,30.6377,11868,1.01841
6290,30.7207,11911.9,1.02145
6307,30.8037,11920.4,1.02361
6324,30.8867,11979.4,1.02814
6341,30.9697,12006.7,1.02882
6358,31.0527,12032.6,1.03327
6375,31.1357,12061.6,1.0336
6392,31.21875,12076.8,1.03684
6409,31.3018,12137.9,1.04099
6426,31.3848,12155,1.042419
6443,31.4678,12196.8,1.04671
6460,31.5508,12224.9,1.04916
6477,31.6338,12246.2,1.05072
6494,31.7168,12301.5,1.05559
6511,31.7998,12305,1.05629
6528,31.8828,12350.4,1.06115
6545,31.96582,12388,1.06369
6562,32.0488,12420.1,1.063364
6579,32.1318,12454.6,1.06863
6596,32.2148,12441.6,1.07189
6613,32.2979,12524,1.07593
6630,32.3809,12537.8,1.076743
6647,32.4639,12590.2,1.080085
6664,32.5469,12606.6,1.08248
6681,32.6299,12641,1.0844
6698,32.7129,12676.7,1.08806
6715,32.7959,12703.8,1.08976
6732,32.8789,12752.4,1.094359
6749,32.9619,12766.2,1.09496
6766,33.0449,12809.9,1.098681
6783,33.12793,12832.5,1.10275
6800,33.2109,12851.3,1.10453
6817,33.2939,12903.7,1.10906
6834,33.377,12932.4,1.1102
6851,33.46,12967.8,1.11433
6868,33.543,12996.1,1.11624
6885,33.626,13016.6,1.118054
6902,33.709,13066.8,1.12217
6919,33.792,13062.2,1.12484
6936,33.875,13119.3,1.12796
6953,33.958,13153.1,1.1287
6970,34.041,13163.2,1.13227
6987,34.124,13211.2,1.135
7004,34.207,13214.5,1.13797
7021,34.29,13280.5,1.1408
7038,34.373,13313.4,1.14431
7055,34.4561,13325.3,1.14748
7072,34.5391,13370.7,1.14907
7089,34.62207,13371.3,1.15245
7106,34.7051,13434.6,1.1548
7123,34.7881,13443.7,1.15726
7140,34.8711,13498.4,1.16078
7157,34.9541,13521.7,1.16111
7174,35.0371,13513.6,1.16372
7191,35.1201,13590.1,1.16818
7208,35.2031,13600.7,1.170993
7225,35.2861,13654.7,1.17511
7242,35.3691,13693.6,1.17678
7259,35.4521,13691.7,1.17983
7276,35.5352,13739.6,1.18189
7293,35.6182,13747.4,1.18579
7310,35.7012,13812.4,1.18796
7327,35.78418,13832.1,1.19072
7344,35.8672,13874.1,1.19255
7361,35.9502,13896.6,1.19559
7378,36.0332,13913.3,1.198784
7395,36.1162,13957,1.201286
7412,36.1992,13986.6,1.20517
7429,36.2822,14038.2,1.208176
7446,36.3652,14060.7,1.20937
7463,36.4482,14103.2,1.21336
7480,36.53125,14138.6,1.21654
7497,36.6143,14139.1,1.21751
7514,36.6973,14183.4,1.22136
7531,36.7803,14206.7,1.22418
7548,36.8633,14249.8,1.2269
7565,36.9463,14287.5,1.23015
7582,37.0293,14286.6,1.23217
7599,37.1123,14346.3,1.23573
7616,37.1953,14360.4,1.23765
7633,37.27832,14417.7,1.241706
7650,37.3613,14444.3,1.24288
7667,37.4443,14459.2,1.24572
7684,37.5273,14484.8,1.24851
7701,37.6104,14498.5,1.25073
7718,37.6934,14556.3,1.2552
7735,37.7764,14592.8,1.25803
7752,37.8594,14613.3,1.25969
7769,37.9424,14662.5,1.26154
7786,38.0254,14680.9,1.26428
7803,38.1084,14730.5,1.26987
7820,38.1914,14745,1.26997
7837,38.2744,14788.8,1.27273
7854,38.3574,14822.3,1.277
7871,38.44043,14820.7,1.27773
7888,38.5234,14877.5,1.28413
7905,38.6064,14860.2,1.28433
7922,38.6895,14936.9,1.28947
7939,38.7725,14969.9,1.29048
7956,38.8555,14998.6,1.29357
7973,38.9385,15034,1.296522
7990,39.0215,15016.2,1.29788
8007,39.1045,15106.7,1.301132
8024,39.1875,15118.7,1.30397
8041,39.2705,15156.7,1.307279
8058,39.3535,15193.6,1.30854
8075,39.4365,15184.2,1.3117
8092,39.5195,15239.7,1.31508
8109,39.6025,15264.3,1.31649
8126,39.6855,15305.3,1.31983
8143,39.7686,15348.7,1.323783
8160,39.8516,15376.2,1.32559
8177,39.93457,15410.9,1.32714
8194,40.0176,15412.7,1.33216
8211,40.1006,15472.8,1.33468
8228,40.1836,15497.8,1.33767
8245,40.2666,15535.9,1.33985
8262,40.3496,15564.9,1.34262
8279,40.4326,15557.6,1.3447
8296,40.5156,15606.5,1.35031
8313,40.5986,15652.9,1.35122
8330,40.6816,15683.8,1.35373
8347,40.7646,15718.6,1.35603
8364,40.8477,15732.1,1.360093
8381,40.9307,15767.6,1.36133
8398,41.0137,15794.3,1.36372
8415,41.09668,15842.3,1.36828
8432,41.1797,15867.9,1.37109
8449,41.2627,15902,1.37418
8466,41.3457,15934.1,1.37621
8483,41.4287,15918.5,1.37727
8500,41.5117,15988.3,1.38178
8517,41.5947,16018.9,1.38344
8534,41.6777,16057.1,1.3875
8551,41.7607,16092.6,1.38913
8568,41.84375,16095.1,1.39175
8585,41.9268,16149.1,1.39437
8602,42.0098,16158.3,1.39622
8619,42.0928,16208.6,1.40113
8636,42.1758,16239.9,1.4047
8653,42.2588,16275.3,1.40677
8670,42.3418,16301.6,1.40875
8687,42.4248,16290.1,1.41121
8704,42.5078,16366,1.41506
8721,42.59082,16396.6,1.417027
8738,42.6738,16434.3,1.42096
8755,42.7568,16453.5,1.423
8772,42.8398,16472.5,1.42468
8789,42.9229,16506,1.42798
8806,43.0059,16541.4,1.43094
8823,43.0889,16575.1,1.43283
8840,43.1719,16610.1,1.43658
8857,43.2549,16631.3,1.439273
8874,43.3379,16678.1,1.442644
8891,43.4209,16667.1,1.44551
8908,43.5039,16731,1.448
8925,43.5869,16761.1,1.4504
8942,43.6699,16795.9,1.45342
8959,43.75293,16832.9,1.45581
8976,43.8359,16809.3,1.4586
8993,43.9189,16881.7,1.462
9010,44.002,16908.3,1.46187
9027,44.085,16947.8,1.46783
9044,44.168,16992.8,1.46921
9061,44.251,17003.1,1.47203
9078,44.334,17034.6,1.4745
9095,44.417,17020.4,1.47726
9112,44.5,17105.7,1.48178
9129,44.583,17144.8,1.48455
9146,44.666,17161.5,1.48534
9163,44.749,17198.3,1.48987
9180,44.832,17196.8,1.49228
9197,44.915,17257.7,1.494604
9214,44.998,17284.6,1.49761
9231,45.0811,17317.5,1.500337
9248,45.1641,17357.1,1.50352
9265,45.24707,17361.9,1.50581
9282,45.3301,17411.6,1.50958
9299,45.4131,17436.6,1.51087
9316,45.4961,17451.5,1.51494
9333,45.5791,17516.4,1.51783
9350,45.6621,17532.2,1.51954
9367,45.7451,17573.9,1.52316
9384,45.8281,17537.1,1.52449
9401,45.9111,17635.7,1.52771
9418,45.9941,17656.3,1.53004
9435,46.0771,17671.1,1.53463
9452,46.1602,17733.6,1.53691
9469,46.2432,17742.7,1.53863
9486,46.3262,17773.4,1.54184
9503,46.40918,17809.8,1.54398
9520,46.4922,17841.1,1.54898
9537,46.5752,17885.5,1.55072
9554,46.6582,17898.8,1.55229
9571,46.7412,17940.7,1.55453
9588,46.8242,17950,1.55808
9605,46.9072,18002,1.56242
9622,46.9902,18020.2,1.56275
9639,47.0732,18063.8,1.567418
9656,47.15625,18098.2,1.56989
9673,47.2393,18083,1.57174
9690,47.3223,18151.8,1.57589
9707,47.4053,18181.3,1.57788
9724,47.4883,18197.8,1.581688
9741,47.5713,18247.1,1.58427
9758,47.6543,18264.2,1.58549
9775,47.7373,18307.5,1.58906
9792,47.8203,18295.1,1.59124
9809,47.90332,18368.8,1.5954
9826,47.9863,18399.7,1.59774
9843,48.0693,18423,1.599591
9860,48.1523,18458.9,1.60331
9877,48.2354,18444.6,1.60364
9894,48.3184,18511.9,1.60693
9911,48.4014,18539.4,1.6115
9928,48.4844,18570.5,1.613456
9945,48.5674,18604.4,1.61662
9962,48.6504,18635.5,1.61839
9979,48.7334,18675.7,1.62209
9996,48.8164,18672.9,1.62394
10013,48.8994,18737.9,1.62925
10030,48.9824,18773.7,1.6302
10047,49.06543,18784.6,1.6348
10064,49.1484,18823.8,1.6378
10081,49.2314,18842.1,1.63834
10098,49.3145,18883.1,1.64306
10115,49.3975,18921.9,1.64496
10132,49.4805,18934.6,1.64797
10149,49.5635,18976.7,1.65058
10166,49.6465,18950.8,1.65267
10183,49.7295,19038.2,1.6551
10200,49.8125,19050.1,1.65766
10217,49.8955,19080.2,1.66166
10234,49.9785,19126.3,1.66373
10251,50.0615,19150.7,1.66731
10268,50.1445,19177.9,1.67057
10285,50.2275,19207.4,1.67249
10302,50.3105,19244,1.67478
10319,50.3936,19277.8,1.67995
10336,50.4766,19303.3,1.68102
10353,50.55957,19344,1.68336
10370,50.6426,19345.9,1.68587
10387,50.7256,19397.9,1.68872
10404,50.8086,19424.9,1.6922
10421,50.8916,19454.9,1.69463
10438,50.9746,19487.8,1.69652
10455,51.0576,19512.4,1.69975
10472,51.1406,19553.8,1.70443
10489,51.2236,19559.9,1.70341
10506,51.3066,19597,1.70866
10523,51.3896,19634,1.71175
10540,51.4727,19662.1,1.71243
10557,51.5557,19698.6,1.71562
10574,51.6387,19677,1.71739
10591,51.72168,19747.5,1.721661
10608,51.8047,19784.9,1.72413
10625,51.8877,19819.5,1.7269
10642,51.9707,19856.2,1.72987
10659,52.0537,19835.3,1.73242
10676,52.1367,19912.3,1.73701
10693,52.2197,19926.2,1.73647
10710,52.3027,19959.3,1.742041
10727,52.3857,19997.5,1.74474
10744,52.46875,20014.2,1.74834
10761,52.5518,20053.3,1.74973
10778,52.6348,20048.2,1.75128
10795,52.7178,20110,1.75367
10812,52.8008,20137.2,1.75764
10829,52.8838,20180.2,1.76054
10846,52.9668,20211.5,1.76298
10863,53.0498,20204.5,1.7655
10880,53.1328,20263.5,1.76917
10897,53.2158,20292.5,1.77226
10914,53.2988,20331.7,1.77413
10931,53.3818,20372.8,1.7777
10948,53.4648,20386.9,1.77909
10965,53.5479,20431.9,1.78447
10982,53.6309,20424.2,1.78475
10999,53.7139,20463.9,1.788
11016,53.7969,20507.2,1.79184
11033,53.8799,20545.1,1.79352
11050,53.9629,20581.6,1.79654
11067,54.0459,20574.7,1.79795
11084,54.1289,20631.9,1.80295
11101,54.2119,20660.4,1.8047
11118,54.2949,20683,1.80764
11135,54.3779,20729.8,1.81137
11152,54.4609,20752.5,1.81069
11169,54.5439,20793.6,1.816704
11186,54.627,20808.8,1.81666
11203,54.71,20850,1.82123
11220,54.793,20875.9,1.82459
11237,54.876,20898.6,1.82572
11254,54.959,20928.7,1.82963
11271,55.042,20938,1.83143
11288,55.125,20978.1,1.83477
11305,55.208,21021,1.83737
11322,55.291,21035.2,1.84082
11339,55.374,21084.2,1.84369
11356,55.457,21086.5,1.845193
11373,55.54,21153.6,1.84991
11390,55.623,21175.6,1.85032
11407,55.7061,21196.2,1.854
11424,55.7891,21229.8,1.85649
11441,55.8721,21263.6,1.85989
11458,55.9551,21285.8,1.86161
11475,56.0381,21290,1.86397
11492,56.1211,21350.1,1.86964
11509,56.2041,21386.9,1.87191
11526,56.2871,21393,1.8736
11543,56.3701,21450.4,1.87656
11560,56.4531,21458.5,1.87893
11577,56.5361,21505.3,1.8831
11594,56.6191,21521.9,1.88277
11611,56.7021,21555.7,1.88768
11628,56.7852,21593.7,1.88941
11645,56.8682,21617.1,1.89332
11662,56.9512,21653.3,1.89666
11679,57.0342,21658.3,1.89818
11696,57.1172,21699.6,1.90284
11713,57.2002,21736.1,1.90402
11730,57.2832,21768.3,1.905587
11747,57.3662,21820.7,1.90959
11764,57.4492,21818.8,1.91103
11781,57.5322,21864.3,1.9141
11798,57.6152,21880.7,1.91726
11815,57.6982,21906,1.91972
11832,57.78125,21965.2,1.92325
11849,57.8643,21980.2,1.92542
11866,57.9473,22024.5,1.92914
11883,58.0303,22035.8,1.9323
11900,58.1133,22060.3,1.93454
11917,58.1963,22084.5,1.93774
11934,58.2793,22113.4,1.94112
11951,58.3623,22176.4,1.94271
11968,58.4453,22167.7,1.94446
11985,58.5283,22220.3,1.94784
12002,58.6113,22260.5,1.95074
12019,58.6943,22272,1.95438
12036,58.7773,22325.5,1.95955
12053,58.8604,22349.6,1.95881
12070,58.9434,22377,1.96357
12087,59.0264,22384.6,1.96399
12104,59.1094,22420.5,1.96759
12121,59.1924,22473.6,1.97176
12138,59.2754,22479.8,1.97281
12155,59.3584,22539.3,1.97603
12172,59.4414,22522.2,1.97642
12189,59.5244,22593.2,1.98145
12206,59.6074,22611.5,1.98328
12223,59.6904,22615.3,1.98813
12240,59.7734,22682.3,1.9914
12257,59.8564,22707.4,1.99313
12274,59.9395,22745.8,1.99612
12291,60.0225,22772.8,1.99772
12308,60.1055,22793.8,2.00172
12325,60.1885,22839.2,2.00562
12342,60.2715,22863.6,2.00593
12359,60.3545,22910.8,2.01124
12376,60.4375,22913.4,2.012852
12393,60.5205,22930.9,2.01597
12410,60.6035,22989.8,2.01812
12427,60.6865,23001.2,2.02038
12444,60.7695,23036.8,2.02423
12461,60.8525,23055.4,2.02622
12478,60.9355,23092.6,2.03007
12495,61.0186,23125.1,2.03138
12512,61.1016,23159.7,2.03474
12529,61.1846,23195.2,2.03791
12546,61.2676,23205.3,2.03972
12563,61.3506,23252.8,2.04407
12580,61.4336,23265.9,2.04467
12597,61.5166,23279.3,2.04816
12614,61.5996,23331.5,2.0503
12631,61.6826,23351.4,2.05378
12648,61.7656,23394.7,2.05815
12665,61.8486,23416.1,2.05929
12682,61.9316,23439.6,2.06138
12699,62.0146,23472.3,2.06449
12716,62.0977,23495.3,2.06721
12733,62.1807,23539.6,2.07076
12750,62.2637,23554.9,2.072751
12767,62.3467,23595.9,2.07558
12784,62.4297,23612.9,2.07828
12801,62.5127,23626.5,2.07993
12818,62.5957,23688.5,2.08377
12835,62.6787,23709.6,2.08621
12852,62.7617,23750.6,2.090636
12869,62.8447,23772,2.09184
12886,62.9277,23798,2.09448
12903,63.0107,23837.6,2.09911
12920,63.09375,23870.7,2.10167
12937,63.1768,23897.5,2.10335
12954,63.2598,23909.6,2.1046
12971,63.3428,23954.6,2.10937
12988,63.4258,23964.4,2.11082
13005,63.5088,24001.6,2.11361
13022,63.5918,24041.5,2.11587
13039,63.6748,24053.8,2.119
13056,63.7578,24092.1,2.12305
13073,63.8408,24110,2.12394
13090,63.9238,24137.5,2.127878
13107,64.0068,24168.4,2.13213
13124,64.0898,24196.1,2.13487
13141,64.1729,24256,2.137352
13158,64.2559,24256,2.13806
13175,64.3389,24277.6,2.143084
13192,64.4219,24332.2,2.14578
13209,64.5049,24344.2,2.14742
13226,64.5879,24396.7,2.14997
13243,64.6709,24401.7,2.15196
13260,64.7539,24452,2.15673
13277,64.8369,24469,2.15759
13294,64.9199,24497.2,2.16114
13311,65.00293,24522.6,2.16406
13328,65.0859,24544.8,2.16564
13345,65.1689,24588.4,2.16863
13362,65.252,24592.7,2.16953
13379,65.335,24625.5,2.17577
13396,65.418,24678.1,2.17797
13413,65.501,24689.9,2.18149
13430,65.584,24740.3,2.18356
13447,65.667,24755.5,2.18514
13464,65.75,24795.4,2.18971
13481,65.833,24815.1,2.19096
13498,65.916,24839.4,2.19368
13515,65.999,24880.8,2.196671
13532,66.082,24889.6,2.19934
13549,66.165,24946.8,2.20334
13566,66.248,24969.5,2.20636
13583,66.3311,24989.8,2.20921
13600,66.4141,25024.2,2.21152
13617,66.49707,25036.1,2.21271
13634,66.5801,25079.2,2.21785
13651,66.6631,25092.1,2.21877
13668,66.7461,25139.6,2.22302
13685,66.8291,25165.3,2.22521
13702,66.9121,25189.7,2.22816
13719,66.9951,25228.3,2.23066
13736,67.0781,25245.9,2.23473
13753,67.1611,25283.2,2.23588
13770,67.2441,25314.3,2.23834
13787,67.3271,25341.2,2.24284
13804,67.4102,25370.8,2.2448
13821,67.4932,25389.9,2.24614
13838,67.5762,25438.2,2.25006
13855,67.65918,25448.9,2.25096
13872,67.7422,25482.1,2.25422
13889,67.8252,25501.6,2.25797
13906,67.9082,25534.4,2.26083
13923,67.9912,25578.6,2.26447
13940,68.0742,25590.8,2.26518
13957,68.1572,25631.8,2.27014
13974,68.2402,25667.1,2.27181
13991,68.3232,25671.2,2.27528
14008,68.40625,25709.5,2.27835
14025,68.4893,25720.8,2.28098
14042,68.5723,25779.1,2.28347
14059,68.6553,25793.8,2.28424
14076,68.7383,25823.4,2.28865
14093,68.8213,25867.4,2.29081
14110,68.9043,25879.3,2.29374
14127,68.9873,25932.8,2.29827
14144,69.0703,25951.1,2.2991
14161,69.15332,25977.6,2.30252
14178,69.2363,26007.5,2.30522
14195,69.3193,26015.5,2.307101
14212,69.4023,26065.8,2.31053
14229,69.4854,26087.7,2.31273
14246,69.5684,26123.9,2.31601
14263,69.6514,26138.6,2.31902
14280,69.7344,26179.4,2.322258
14297,69.8174,26210,2.32386
14314,69.9004,26219,2.32815
14331,69.9834,26268.3,2.33154
14348,70.0664,26293.3,2.33281
14365,70.1494,26327.2,2.33556
14382,70.2324,26350.2,2.33789
14399,70.31543,26369.7,2.341341
14416,70.3984,26410.3,2.34443
14433,70.4814,26422.6,2.34646
14450,70.5645,26477.6,2.350441
14467,70.6475,26496.1,2.35227
14484,70.7305,26487.7,2.35515
14501,70.8135,26554.3,2.35877
14518,70.8965,26568.9,2.35946
14535,70.9795,26620.5,2.364013
14552,71.0625,26640.4,2.36662
14569,71.1455,26654.7,2.36842
14586,71.2285,26704,2.37083
14603,71.3115,26712.9,2.37296
14620,71.3945,26756.6,2.37751
14637,71.4775,26772.9,2.37904
14654,71.5605,26820.1,2.38248
14671,71.6436,26842.8,2.38509
14688,71.7266,26834.1,2.38778
14705,71.80957,26894.2,2.39095
14722,71.8926,26923.7,2.39286
14739,71.9756,26961.2,2.39652
14756,72.0586,26982.2,2.39903
14773,72.1416,27005.6,2.4018
14790,72.2246,27043.3,2.40455
14807,72.3076,27069.1,2.40666
14824,72.3906,27095.9,2.41065
14841,72.4736,27134.1,2.41188
14858,72.5566,27159.1,2.4159
14875,72.6396,27190.5,2.41844
14892,72.7227,27193.1,2.421303
14909,72.8057,27258.4,2.4242
14926,72.8887,27265.8,2.426
14943,72.97168,27316.1,2.42922
14960,73.0547,27334.1,2.43295
14977,73.1377,27361.5,2.43452
14994,73.2207,27388.7,2.43797
15011,73.3037,27420.5,2.44136
15028,73.3867,27445.1,2.4432
15045,73.4697,27474.8,2.44677
15062,73.5527,27501.9,2.44904
15079,73.6357,27529.4,2.45165
15096,73.71875,27507.8,2.45447
15113,73.8018,27604.8,2.45804
15130,73.8848,27600.2,2.45955
15147,73.9678,27657.5,2.46269
15164,74.0508,27681.8,2.46663
15181,74.1338,27693.2,2.46908
15198,74.2168,27740.6,2.47064
15215,74.2998,27766.8,2.4736
15232,74.3828,27797.8,2.47762
15249,74.46582,27824.1,2.47879
15266,74.5488,27854,2.48133
15283,74.6318,27880.4,2.48455
15300,74.7148,27884.7,2.48829
15317,74.7979,27934.4,2.49123
15334,74.8809,27929.4,2.49261
15351,74.9639,27999.4,2.4959
15368,75.0469,28026.3,2.49892
15385,75.1299,28039.6,2.49997
15402,75.2129,28077.5,2.50396
15419,75.2959,28097.5,2.50531
15436,75.3789,28140.7,2.510411
15453,75.4619,28171.5,2.51263
15470,75.5449,28184.4,2.51395
15487,75.62793,28217.5,2.51816
15504,75.7109,28225.2,2.52032
15521,75.7939,28279,2.52475
15538,75.877,28300.5,2.525583
15555,75.96,28336.8,2.52937
15572,76.043,28367.3,2.53188
15589,76.126,28363.1,2.53616
15606,76.209,28419.7,2.53743
15623,76.292,28427,2.540437
15640,76.375,28481.4,2.5437
15657,76.458,28510.5,2.54622
15674,76.541,28505.3,2.5484
15691,76.624,28568.3,2.55083
15708,76.707,28576.5,2.55357
15725,76.79,28616.5,2.55861
15742,76.873,28649.6,2.55959
15759,76.9561,28686.5,2.563452
15776,77.0391,28705.7,2.5658
15793,77.12207,28702.2,2.56641
15810,77.2051,28761.9,2.5717
15827,77.2881,28780.3,2.57316
15844,77.3711,28823.1,2.57643
15861,77.4541,28845.8,2.57901
15878,77.5371,28845.1,2.582257
15895,77.6201,28897.1,2.584
15912,77.7031,28884.4,2.58819
15929,77.7861,28968.6,2.59047
15946,77.8691,28991.2,2.59246
15963,77.9521,29011.3,2.59441
15980,78.0352,29037.8,2.5998
15997,78.1182,29049.5,2.60098
16014,78.2012,29094.6,2.6026
16031,78.28418,29118.7,2.60637
16048,78.3672,29157.4,2.60995
16065,78.4502,29188,2.61255
16082,78.5332,29194.3,2.61463
16099,78.6162,29236.5,2.61774
16116,78.6992,29262.6,2.619853
16133,78.7822,29305,2.6237
16150,78.8652,29328.9,2.62526
16167,78.9482,29353.7,2.6292
16184,79.03125,29384.4,2.63175
16201,79.1143,29381.4,2.63469
16218,79.1973,29446.5,2.63701
16235,79.2803,29462,2.64055
16252,79.3633,29492.2,2.64433
16269,79.4463,29525.7,2.64706
16286,79.5293,29519,2.64788
16303,79.6123,29585,2.65092
16320,79.6953,29595.2,2.65436
16337,79.77832,29630.6,2.65814
16354,79.8613,29668.1,2.65873
16371,79.9443,29674.3,2.66121
16388,80.0273,29709.8,2.66451
16405,80.1104,29723.5,2.66654
16422,80.1934,29776.8,2.67006
16439,80.2764,29809.6,2.67261
16456,80.3594,29834.5,2.6758
16473,80.4424,29864.8,2.67736
16490,80.5254,29881.3,2.68034
16507,80.6084,29909.3,2.68502
16524,80.6914,29930.2,2.68709
16541,80.7744,29959,2.69047
16558,80.8574,30011.4,2.69182
16575,80.94043,30022.9,2.69398
16592,81.0234,30056.9,2.697243
16609,81.1064,30076.1,2.70129
16626,81.1895,30105.8,2.70403
16643,81.2725,30141,2.70627
16660,81.3555,30160.2,2.7094
16677,81.4385,30195,2.7109
16694,81.5215,30197.4,2.71269
16711,81.6045,30240.7,2.71743
16728,81.6875,30281.5,2.72048
16745,81.7705,30314.6,2.72284
16762,81.8535,30341.5,2.7262
16779,81.9365,30329.9,2.72842
16796,82.0195,30387.4,2.73139
16813,82.1025,30418.9,2.733217
16830,82.1855,30460.9,2.73729
16847,82.2686,30488.6,2.73904
16864,82.3516,30508.6,2.741586
16881,82.43457,30531.1,2.74439
16898,82.5176,30520.5,2.7471
16915,82.6006,30594.7,2.7491
16932,82.6836,30610.5,2.75417
16949,82.7666,30644.2,2.755688
16966,82.8496,30678.7,2.75748
16983,82.9326,30668.3,2.76139
17000,83.0156,30715.4,2.76296
17017,83.0986,30754.6,2.76657
17034,83.1816,30783.4,2.77047
17051,83.2646,30822.7,2.77344
17068,83.3477,30832,2.77495
17085,83.4307,30877.6,2.778291
17102,83.5137,30884.8,2.78029
17119,83.59668,30928,2.78498
17136,83.6797,30966,2.78698
17153,83.7627,30981.8,2.79021
17170,83.8457,31012.5,2.79249
17187,83.9287,31022,2.79284
17204,84.0117,31060.1,2.79845
17221,84.0947,31098.4,2.7997
17238,84.1777,31134.4,2.80394
17255,84.2607,31164.4,2.80665
17272,84.34375,31162,2.80825
17289,84.4268,31221.8,2.81226
17306,84.5098,31241.5,2.8139
17323,84.5928,31278.7,2.81681
17340,84.6758,31306.1,2.81935
17357,84.7588,31322.9,2.82159
17374,84.8418,31356.2,2.82533
17391,84.9248,31363.8,2.82599
17408,85.0078,31413.7,2.8324
17425,85.09082,31439.5,2.83338
17442,85.1738,31461.9,2.83608
17459,85.2568,31498.2,2.83857
17476,85.3398,31509.4,2.84033
17493,85.4229,31548.7,2.84398
17510,85.5059,31567,2.84721
17527,85.5889,31612.9,2.8504
17544,85.6719,31635.5,2.85254
17561,85.7549,31654.2,2.85458
17578,85.8379,31699.8,2.85975
17595,85.9209,31687.4,2.859885
17612,86.0039,31740.7,2.86449
17629,86.0869,31778.4,2.86724
17646,86.1699,31798.4,2.86998
17663,86.25293,31829.1,2.87169
17680,86.3359,31811.2,2.87575
17697,86.4189,31873,2.87775
17714,86.502,31892.7,2.88054
17731,86.585,31942.5,2.88229
17748,86.668,31970,2.8858
17765,86.751,31982.3,2.88864
17782,86.834,32020.6,2.89117
17799,86.917,32035.1,2.89532
17816,87.0,32072.8,2.89715
17833,87.083,32115.8,2.90043
17850,87.166,32136,2.90235
17867,87.249,32170.1,2.90448
17884,87.332,32182.2,2.90818
17901,87.415,32216.1,2.91041
17918,87.498,32233.6,2.9131
17935,87.5811,32256.3,2.9152
17952,87.6641,32295,2.91974
17969,87.74707,32314.5,2.92218
17986,87.8301,32350.2,2.924545
18003,87.9131,32373.9,2.927124
18020,87.9961,32409.9,2.9308
18037,88.0791,32441.1,2.93233
18054,88.1621,32453.2,2.93507
18071,88.2451,32485.3,2.93682
18088,88.3281,32499.9,2.9405
18105,88.4111,32551.1,2.94385
18122,88.4941,32578.6,2.94703
18139,88.5771,32605.2,2.9504
18156,88.6602,32636,2.95373
18173,88.7432,32639.2,2.952363
18190,88.8262,32687.1,2.9563
18207,88.90918,32709,2.95983
18224,88.9922,32741.2,2.96328
18241,89.0752,32766.1,2.96652
18258,89.1582,32795.3,2.96778
18275,89.2412,32824.5,2.97226
18292,89.3242,32835,2.97273
18309,89.4072,32866,2.97604
18326,89.4902,32909.9,2.97863
18343,89.5732,32942.7,2.98081
18360,89.65625,32975.5,2.98706
18377,89.7393,32974.2,2.98698
18394,89.8223,33020.1,2.99068
18411,89.9053,33050.3,2.99486
18428,89.9883,33077.1,2.99732
18445,90.0713,33108.1,2.99958
18462,90.1543,33125.7,3.00205
18479,90.2373,33166.5,3.00456
18496,90.3203,33177.7,3.00681
18513,90.40332,33226.6,3.01021
18530,90.4863,33240,3.01226
18547,90.5693,33265.3,3.0168
18564,90.6523,33300.9,3.0186
18581,90.7354,33295.2,3.021944
18598,90.8184,33350.2,3.02345
18615,90.9014,33382.1,3.02699
18632,90.9844,33406.9,3.03051
18649,91.0674,33443.3,3.032342
18666,91.1504,33448.2,3.03315
18683,91.2334,33498.8,3.037487
18700,91.3164,33508.8,3.0411
18717,91.3994,33541.6,3.04441
18734,91.4824,33578.2,3.04652
18751,91.56543,33595.4,3.04822
18768,91.6484,33629.3,3.051703
18785,91.7314,33643.6,3.05416
18802,91.8145,33681.5,3.05692
18819,91.8975,33718.6,3.061
18836,91.9805,33735.5,3.06372
18853,92.0635,33778.6,3.06711
18870,92.1465,33772.8,3.06744
18887,92.2295,33817.7,3.07128
18904,92.3125,33839.8,3.07288
18921,92.3955,33882.8,3.07767
18938,92.4785,33906.1,3.07948
18955,92.5615,33932.2,3.082109
18972,92.6445,33953.9,3.08504
18989,92.7275,33981,3.08764
19006,92.8105,34004.9,3.08953
19023,92.8936,34032.4,3.09417
19040,92.9766,34066.1,3.09658
19057,93.05957,34100.1,3.09979
19074,93.1426,34091,3.10243
19091,93.2256,34152.9,3.10425
19108,93.3086,34153.5,3.10616
19125,93.3916,34199.8,3.10904
19142,93.4746,34232.7,3.11304
19159,93.5576,34238.9,3.11481
19176,93.6406,34289.7,3.11839
19193,93.7236,34302.3,3.12102
19210,93.8066,34336.1,3.12529
19227,93.8896,34361.3,3.12598
19244,93.9727,34399.3,3.12946
19261,94.0557,34422.3,3.1321
19278,94.1387,34440.3,3.132725
19295,94.22168,34463.1,3.1373
19312,94.3047,34497.2,3.14109
19329,94.3877,34532.7,3.14347
19346,94.4707,34554.8,3.1464
19363,94.5537,34575.6,3.14866
19380,94.6367,34614.4,3.15203
19397,94.7197,34623.9,3.152823
19414,94.8027,34661.8,3.15696
19431,94.8857,34699.5,3.16002
19448,94.96875,34714.1,3.16277
19465,95.0518,34758.9,3.16516
19482,95.1348,34757.2,3.166631
19499,95.2178,34804,3.17131
19516,95.3008,34830.4,3.17442
19533,95.3838,34856.5,3.17722
19550,95.4668,34884.9,3.18057
19567,95.5498,34893.2,3.18155
19584,95.6328,34934.3,3.18445
19601,95.71582,34936.7,3.18624
19618,95.7988,34983.7,3.18891
19635,95.8818,35017.5,3.19433
19652,95.9648,35033.6,3.19421
19669,96.0479,35066.2,3.20013
19686,96.1309,35066,3.19945
19703,96.2139,35114.6,3.20387
19720,96.2969,35150.1,3.20738
19737,96.3799,35182.9,3.20882
19754,96.4629,35208.5,3.2128
19771,96.5459,35211.4,3.21435
19788,96.6289,35254.8,3.21782
19805,96.7119,35278.8,3.22061
19822,96.7949,35284.3,3.22294
19839,96.87793,35333.8,3.22535
19856,96.9609,35353,3.22721
19873,97.0439,35381.1,3.23199
19890,97.127,35394.8,3.23327
19907,97.21,35440.4,3.236954
19924,97.293,35460.7,3.23986
19941,97.376,35496.5,3.241693
19958,97.459,35536.6,3.24497
19975,97.542,35530.5,3.24751
19992,97.625,35588.2,3.251718
20009,97.708,35611.6,3.25218
20026,97.791,35646,3.25697
20043,97.874,35679.1,3.25994
20060,97.957,35673.3,3.26126
20077,98.04,35728.6,3.2642
20094,98.123,35735.7,3.26655
20111,98.2061,35761.6,3.2698
20128,98.2891,35799,3.27365
20145,98.37207,35833.6,3.2773
20162,98.4551,35875.3,3.2798
20179,98.5381,35883.2,3.28025
20196,98.6211,35903.4,3.28482
20213,98.7041,35938.1,3.2857
20230,98.7871,35976.1,3.28904
20247,98.8701,36001.6,3.29244
20264,98.9531,36008.5,3.29373
20281,99.0361,36050.7,3.29886
20298,99.1191,36070.6,3.30033
20315,99.2021,36102.4,3.3038
20332,99.2852,36136.5,3.30665
20349,99.3682,36155,3.30954
20366,99.4512,36186.6,3.3124
20383,99.53418,36193.2,3.31252
20400,99.6172,36226.9,3.31693
20417,99.7002,36267.3,3.3212
20434,99.7832,36283.6,3.32154
20451,99.8662,36324.8,3.325
20468,99.9492,36328.5,3.32921
20485,100.032,36376.3,3.33107
20502,100.115,36393.6,3.3344
20519,100.198,36418.5,3.33735
20536,100.281,36459.1,3.33943
20553,100.364,36489.5,3.3436
20570,100.447,36514.1,3.34552
20587,100.53,36524.3,3.34877
20604,100.613,36552,3.35126
20621,100.696,36590,3.35282
20638,100.7793,36607.8,3.35483
20655,100.8623,36648.7,3.35912
20672,100.945,36667.1,3.36075
20689,101.028,36689.9,3.3641
20706,101.111,36717.2,3.36761
20723,101.194,36740.2,3.36902
20740,101.277,36764.9,3.37219
20757,101.36,36797.7,3.3753
20774,101.443,36825.2,3.378432
20791,101.526,36845.8,3.38134
20808,101.609,36864.8,3.38337
20825,101.692,36899.6,3.38687
20842,101.775,36921.3,3.38809
20859,101.8584,36964.4,3.3926
20876,101.941,36976.8,3.39536
20893,102.024,37001.5,3.397943
20910,102.107,37038.8,3.40047
20927,102.19,37060.8,3.40454
20944,102.273,37091.8,3.40696
20961,102.356,37105.9,3.40787
20978,102.439,37144.6,3.41177
20995,102.522,37161.4,3.41331
21012,102.605,37180.7,3.416033
21029,102.688,37225.3,3.41957
21046,102.771,37246,3.42146
21063,102.854,37280.5,3.42653
21080,102.9375,37300,3.42856
21097,103.021,37320.9,3.43027
21114,103.104,37358.6,3.433326
21131,103.187,37376.9,3.43697
21148,103.27,37418.8,3.4401
21165,103.353,37422.2,3.44185
21182,103.436,37467.5,3.44461
21199,103.519,37488.7,3.44766
21216,103.602,37516.6,3.45136
21233,103.685,37542.7,3.45271
21250,103.768,37569.8,3.45544
21267,103.851,37600.4,3.45905
21284,103.934,37617.8,3.46146
21301,104.0166,37653.8,3.46606
21318,104.1,37684.1,3.46687
21335,104.183,37693.2,3.46907
21352,104.266,37735.8,3.47189
21369,104.349,37733.5,3.47531
21386,104.432,37768.2,3.47751
21403,104.515,37790.4,3.48127
21420,104.598,37822.6,3.48288
21437,104.681,37868.8,3.48652
21454,104.764,37877.2,3.48844
21471,104.847,37911.7,3.49154
21488,104.93,37942.4,3.49504
21505,105.0127,37945.6,3.49782
21522,105.0957,37980.7,3.49945
21539,105.179,38015.3,3.5019
21556,105.262,38050.4,3.50652
21573,105.345,38064.5,3.50723
21590,105.428,38089.6,3.50921
21607,105.511,38112.2,3.51393
21624,105.594,38141.9,3.51707
21641,105.677,38182.4,3.52029
21658,105.76,38193,3.522325
21675,105.843,38222.6,3.52408
21692,105.926,38247,3.52811
21709,106.009,38274.2,3.53008
21726,106.0918,38305.8,3.53512
21743,106.1748,38321.1,3.53466
21760,106.258,38352.4,3.53918
21777,106.341,38381.2,3.54082
21794,106.424,38397,3.54231
21811,106.507,38423,3.54681
21828,106.59,38455.6,3.55006
21845,106.673,38498.3,3.553838
21862,106.756,38496.4,3.55407
21879,106.839,38538.5,3.557894
21896,106.922,38564.3,3.56012
21913,107.005,38595.4,3.56322
21930,107.088,38620.8,3.56585
21947,107.1709,38639.1,3.56774
21964,107.254,38667.5,3.57243
21981,107.337,38687.5,3.57335
21998,107.42,38719.2,3.57641
22015,107.503,38741.4,3.580972
22032,107.586,38762.3,3.58326
22049,107.669,38795.5,3.58621
22066,107.752,38827.2,3.58845
22083,107.835,38842.5,3.59185
22100,107.918,38873,3.59516
22117,108.001,38891.9,3.59625
22134,108.084,38931.9,3.59952
22151,108.167,38950.6,3.6021
22168,108.25,38976.8,3.60522
22185,108.333,39002.9,3.60719
22202,108.416,39010,3.61062
22219,108.499,39063.4,3.61434
22236,108.582,39078.4,3.6157
22253,108.665,39116.8,3.61946
22270,108.748,39137.2,3.6218
22287,108.831,39162,3.62504
22304,108.914,39172.2,3.62817
22321,108.997,39208.6,3.63079
22338,109.08,39249,3.63441
22355,109.163,39268.1,3.636
22372,109.246,39300.3,3.63825
22389,109.3291,39320.2,3.64218
22406,109.412,39340.8,3.64264
22423,109.495,39376.4,3.64739
22440,109.578,39392,3.64944
22457,109.661,39422.4,3.652518
22474,109.744,39452.5,3.65403
22491,109.827,39466.3,3.6584
22508,109.91,39490.8,3.66132
22525,109.993,39510.6,3.66547
22542,110.076,39548.4,3.66622
22559,110.159,39579.9,3.66912
22576,110.242,39604.1,3.672
22593,110.3252,39636.2,3.67502
22610,110.4082,39642.8,3.67819
22627,110.491,39686.7,3.68095
22644,110.574,39699.6,3.68327
22661,110.657,39741.5,3.6862
22678,110.74,39754.7,3.68861
22695,110.823,39784.7,3.6913
22712,110.906,39818.7,3.69447
22729,110.989,39840.5,3.69675
22746,111.072,39874.8,3.69767
22763,111.155,39892.5,3.70319
22780,111.238,39918.3,3.70595
22797,111.321,39952.8,3.70809
22814,111.4043,39958.2,3.71008
22831,111.4873,40001.6,3.71411
22848,111.57,40016.5,3.71608
22865,111.653,40043.8,3.71977
22882,111.736,40070,3.72242
22899,111.819,40076.7,3.72334
22916,111.902,40118.2,3.72728
22933,111.985,40145.7,3.72963
22950,112.068,40171.4,3.73308
22967,112.151,40197.5,3.73661
22984,112.234,40216.3,3.73758
23001,112.317,40247,3.74039
23018,112.4,40261.9,3.74292
23035,112.4834,40304.7,3.74601
23052,112.566,40333.5,3.7488
23069,112.649,40351.5,3.75289
23086,112.732,40374.6,3.75425
23103,112.815,40386.6,3.75683
23120,112.898,40428,3.76104
23137,112.981,40447.7,3.76222
23154,113.064,40475.1,3.76448
23171,113.147,40510.3,3.76862
23188,113.23,40527.4,3.771178
23205,113.313,40564.3,3.77474
23222,113.396,40580.8,3.77675
23239,113.479,40624.2,3.78046
23256,113.5625,40635.8,3.78316
23273,113.646,40659.8,3.78579
23290,113.729,40686.9,3.78744
23307,113.812,40702.4,3.79049
23324,113.895,40747.8,3.79436
23341,113.978,40758.6,3.79714
23358,114.061,40783.6,3.7987
23375,114.144,40804.2,3.80117
23392,114.227,40823.6,3.80401
23409,114.31,40863.5,3.80836
23426,114.393,40881.7,3.8094
23443,114.476,40913.5,3.81255
23460,114.559,40940,3.81556
23477,114.6416,40943.5,3.81861
23494,114.725,40987.3,3.81875
23511,114.808,41006.7,3.82416
23528,114.891,41046.5,3.82642
23545,114.974,41062.1,3.82945
23562,115.057,41098.3,3.83299
23579,115.14,41121,3.83476
23596,115.223,41138.6,3.83841
23613,115.306,41167,3.8414
23630,115.389,41190.9,3.84338
23647,115.472,41222.7,3.84594
23664,115.555,41236.6,3.84887
23681,115.6377,41272.2,3.8518
23698,115.7207,41283,3.85298
23715,115.804,41300.9,3.85665
23732,115.887,41347.4,3.86051
23749,115.97,41358.6,3.86178
23766,116.053,41387.1,3.86491
23783,116.136,41413.8,3.86868
23800,116.219,41428.1,3.87081
23817,116.302,41463.1,3.87362
23834,116.385,41489.3,3.87642
23851,116.468,41517,3.87872
23868,116.551,41544.7,3.88258
23885,116.634,41561.9,3.88453
23902,116.7168,41597.8,3.88735
23919,116.7998,41608.2,3.89056
23936,116.883,41640,3.89146
23953,116.966,41663.1,3.89608
23970,117.049,41685.3,3.89918
23987,117.132,41717.6,3.90264
24004,117.215,41720.3,3.90438
24021,117.298,41767,3.90667
24038,117.381,41784.6,3.90965
24055,117.464,41805.7,3.91223
24072,117.547,41832,3.91508
24089,117.63,41848.6,3.91725
24106,117.713,41872.2,3.91978
24123,117.7959,41904.3,3.92338
24140,117.879,41941.7,3.92685
24157,117.962,41964,3.929714
24174,118.045,41984.8,3.93056
24191,118.128,42005.6,3.93467
24208,118.211,42025.7,3.93707
24225,118.294,42051.4,3.9398
24242,118.377,42083.4,3.94026
24259,118.46,42096.6,3.94537
24276,118.543,42128.6,3.95004
24293,118.626,42124,3.95105
24310,118.709,42176.9,3.9533
24327,118.792,42191.2,3.95717
24344,118.875,42227.8,3.95971
24361,118.958,42251.4,3.96222
24378,119.041,42265.1,3.9635
24395,119.124,42298.9,3.9685
24412,119.207,42313.7,3.96917
24429,119.29,42353.1,3.97419
24446,119.373,42371.6,3.97665
24463,119.456,42393.4,3.97938
24480,119.539,42427.9,3.98198
24497,119.622,42442,3.98506
24514,119.705,42478.2,3.98721
24531,119.788,42496.8,3.9915
24548,119.871,42523.4,3.99302
24565,119.9541,42545.9,3.99459
24582,120.037,42558.6,3.99718
24599,120.12,42598.1,3.99992
24616,120.203,42621.8,4.0035
24633,120.286,42645.3,4.00705
24650,120.369,42675.6,4.00979
24667,120.452,42691.2,4.01386
24684,120.535,42718.7,4.01589
24701,120.618,42734.9,4.01827
24718,120.701,42758.6,4.020071
24735,120.784,42782.3,4.02312
24752,120.867,42813.8,4.02632
24769,120.9502,42830.8,4.03034
24786,121.0332,42853.1,4.03087
24803,121.116,42884,4.03471
24820,121.199,42898.5,4.03595
24837,121.282,42931.1,4.039783
24854,121.365,42950.3,4.04242
24871,121.448,42971.7,4.04457
24888,121.531,42994.2,4.04865
24905,121.614,43010.5,4.04918
24922,121.697,43047.9,4.0523
24939,121.78,43071.6,4.05634
24956,121.863,43090.4,4.05858
24973,121.946,43118.5,4.06298
24990,122.0293,43130.3,4.0645
25007,122.1123,43161.5,4.06716
25024,122.195,43179.9,4.06957
25041,122.278,43208.7,4.07196
25058,122.361,43231.9,4.07569
25075,122.444,43249.6,4.07755
25092,122.527,43274.8,4.08097
25109,122.61,43303.5,4.083014
25126,122.693,43328.3,4.08774
25143,122.776,43354.3,4.09018
25160,122.859,43370.2,4.09282
25177,122.942,43393.1,4.09502
25194,123.025,43418.3,4.09703
25211,123.1084,43448.9,4.10239
25228,123.191,43458.5,4.10355
25245,123.274,43494.2,4.105638
25262,123.357,43521.2,4.10882
25279,123.44,43540.1,4.11177
25284,123.465,10869.1,4.38634