File: ASM109_2021_data/MTS/Quasi/MTS_quasi_9.csv
,Time [s],Load [N],Displacement [mm]
0,0.0078125,-325.326,0.000979453
16,0.0859375,-288.599,0.00172779
32,0.1640625,-234.464,0.00437737
48,0.2421875,-207.196,0.00523925
64,0.3203125,-196.49,0.007995218
80,0.3984375,-140.284,0.0125317
96,0.4765625,-118.733,0.0141817
112,0.5546875,-67.191,0.0173575
128,0.6328125,-82.8334,0.0178027
144,0.7109375,-38.5698,0.0224233
160,0.7890625,-0.130361,0.02432
176,0.8671875,41.3792,0.0275999
192,0.9453125,76.6204,0.0299115
208,1.02344,86.8661,0.0317287
224,1.10156,143.65,0.034461
240,1.17969,160.715,0.036512
256,1.25781,219.28,0.0398031
272,1.33594,197.523,0.0414486
288,1.41406,277.406,0.0464416
304,1.49219,303.842,0.0473325
320,1.57031,350.392,0.0512382
336,1.64844,350.852,0.0515243
352,1.72656,394.359,0.056625
368,1.80469,428.341,0.0581302
384,1.88281,454.895,0.060702
400,1.96094,496.883,0.0636828
416,2.03906,483.569,0.0660691
432,2.11719,560.836,0.0703347
448,2.19531,571.351,0.0710401
464,2.27344,638.251,0.0740035
480,2.35156,654.443,0.0759512
496,2.42969,668.188,0.0801033
512,2.50781,710.005,0.0809446
528,2.58594,742.996,0.0847323
544,2.66406,787.981,0.0868016
560,2.74219,800.277,0.0884646
576,2.82031,853.302,0.0928563
592,2.89844,863.55,0.0939408
608,2.97656,913.23,0.09809196
624,3.05469,938.15,0.0990786
640,3.13281,972.069,0.101868
656,3.21094,1000.73,0.103409
672,3.28906,1022.16,0.107553
688,3.36719,1078.16,0.111048
704,3.44531,1099.33,0.111814
720,3.52344,1133.45,0.11485
736,3.60156,1157.2,0.117566
752,3.67969,1198.62,0.120741
768,3.75781,1228.98,0.121366
784,3.83594,1268.23,0.1265721
800,3.91406,1293.3,0.1282306
816,3.99219,1322.45,0.130908
832,4.07031,1360.22,0.133409
848,4.14844,1373.84,0.134192
864,4.22656,1423.63,0.138991
880,4.30469,1430.02,0.1400739
896,4.38281,1498.23,0.143515
912,4.46094,1495.59,0.145111
928,4.53906,1547.77,0.148581
944,4.61719,1543.59,0.149851
960,4.69531,1609.58,0.153232
976,4.77344,1639.36,0.15737
992,4.85156,1672.08,0.160591
1008,4.92969,1705.25,0.162085
1024,5.00781,1691.09,0.164081
1040,5.08594,1760.79,0.167561
1056,5.16406,1797.32,0.170318
1072,5.24219,1837.37,0.172549
1088,5.32031,1844.29,0.173555
1104,5.39844,1885.88,0.176755
1120,5.47656,1930.5,0.179856
1136,5.55469,1952.22,0.182137
1152,5.63281,1993.63,0.184755
1168,5.71094,1994.8,0.187473
1184,5.78906,2065.97,0.19207
1200,5.86719,2069.88,0.191339
1216,5.94531,2112.91,0.195376
1232,6.02344,2097.76,0.196989
1248,6.10156,2167.85,0.199729
1264,6.17969,2199.86,0.204063
1280,6.25781,2250.38,0.2073893
1296,6.33594,2282.12,0.207719
1312,6.41406,2278.52,0.210628
1328,6.49219,2330.95,0.21387
1344,6.57031,2362.36,0.216874
1360,6.64844,2390.66,0.219455
1376,6.72656,2386.84,0.221338
1392,6.80469,2448.26,0.225106
1408,6.88281,2495.93,0.228548
1424,6.96094,2510.3,0.229599
1440,7.03906,2537.48,0.23128
1456,7.11719,2549.33,0.234414
1472,7.19531,2614.47,0.237605
1488,7.27344,2645.86,0.239311
1504,7.35156,2689.56,0.243192
1520,7.42969,2683.54,0.243869
1536,7.50781,2715.7,0.248681
1552,7.58594,2751.81,0.250549
1568,7.66406,2803.05,0.25269
1584,7.74219,2825.34,0.254366
1600,7.82031,2837.99,0.257657
1616,7.89844,2877.52,0.2608037
1632,7.97656,2921.38,0.261901
1648,8.05469,2970.22,0.267629
1664,8.13281,2978.2,0.267154
1680,8.21094,3019.42,0.270552
1696,8.28906,3049.07,0.273135
1712,8.36719,3095.43,0.2778022
1728,8.44531,3087.21,0.277713
1744,8.52344,3145.37,0.282044
1760,8.60156,3173.1,0.2843602
1776,8.67969,3212.47,0.287807
1792,8.75781,3248.94,0.28908
1808,8.83594,3227.74,0.291134
1824,8.91406,3296.56,0.294488
1840,8.99219,3332.01,0.297529
1856,9.07031,3375.02,0.30131
1872,9.14844,3379.94,0.300237
1888,9.22656,3421.3,0.305279
1904,9.30469,3449.57,0.308068
1920,9.38281,3484.81,0.309952
1936,9.46094,3526.1,0.31289
1952,9.53906,3521.48,0.314406
1968,9.61719,3586.76,0.319059
1984,9.69531,3606.66,0.320529
2000,9.77344,3651.68,0.3239809
2016,9.85156,3675.82,0.324592
2032,9.92969,3689.18,0.328093
2048,10.0078,3736.03,0.330804
2064,10.0859,3762.63,0.333954
2080,10.1641,3801.64,0.336467
2096,10.2422,3822.31,0.336778
2112,10.3203,3861,0.341631
2128,10.3984,3872.78,0.344416
2144,10.4766,3933.79,0.34695
2160,10.5547,3941.61,0.348309
2176,10.6328,3974.58,0.3514038
2192,10.7109,4008.19,0.35339
2208,10.7891,4044.85,0.355196
2224,10.8672,4083.05,0.359993
2240,10.9453,4112.29,0.363723
2256,11.0234,4141.43,0.36462
2272,11.1016,4147.57,0.365527
2288,11.1797,4207.65,0.370785
2304,11.2578,4188.86,0.370408
2320,11.3359,4261.21,0.374834
2336,11.4141,4276.26,0.37654
2352,11.4922,4318.2,0.380476
2368,11.5703,4356.33,0.383218
2384,11.6484,4395.44,0.385569
2400,11.7266,4413.7,0.38827
2416,11.8047,4403.42,0.390707
2432,11.8828,4486.02,0.3935127
2448,11.9609,4488.98,0.394122
2464,12.0391,4542.84,0.398024
2480,12.1172,4557.43,0.40045
2496,12.1953,4591.55,0.4036881
2512,12.2734,4626.38,0.407057
2528,12.3516,4661.92,0.408572
2544,12.4297,4688.85,0.410112
2560,12.5078,4702.34,0.414316
2576,12.5859,4754.66,0.416784
2592,12.6641,4784.7,0.419824
2608,12.7422,4821.44,0.421794
2624,12.8203,4807.61,0.423499
2640,12.8984,4890.99,0.427649
2656,12.9766,4910.39,0.42809
2672,13.0547,4931.12,0.432683
2688,13.1328,4967.5,0.434131
2704,13.2109,4986.77,0.436809
2720,13.2891,5026.76,0.438852
2736,13.3672,5053.69,0.441069
2752,13.4453,5094.83,0.446027
2768,13.5234,5095.51,0.446725
2784,13.6016,5161.27,0.449766
2800,13.6797,5191.82,0.453355
2816,13.7578,5216.42,0.456351
2832,13.8359,5248.71,0.457638
2848,13.9141,5246.48,0.462074
2864,13.9922,5313.34,0.464326
2880,14.0703,5326.13,0.466032
2896,14.1484,5381.31,0.469732
2912,14.2266,5366.76,0.470503
2928,14.3047,5433.17,0.472258
2944,14.3828,5453.31,0.474474
2960,14.4609,5494.73,0.478003
2976,14.5391,5513.33,0.480095
2992,14.6172,5532.93,0.485099
3008,14.6953,5584.57,0.487174
3024,14.7734,5607.73,0.489727
3040,14.8516,5654.64,0.49167
3056,14.9297,5624.96,0.493834
3072,15.0078,5714.44,0.497611
3088,15.0859,5726.26,0.498029
3104,15.1641,5783,0.502865
3120,15.2422,5777.9,0.503335
3136,15.3203,5834.55,0.50631
3152,15.3984,5864.54,0.509456
3168,15.4766,5898.52,0.513667
3184,15.5547,5946.14,0.516822
3200,15.6328,5935.53,0.517822
3216,15.7109,5981.64,0.520999
3232,15.7891,6001.69,0.523105
3248,15.8672,6059.81,0.526448
3264,15.9453,6045.77,0.526999
3280,16.0234,6110.66,0.530136
3296,16.1016,6133.83,0.533818
3312,16.1797,6171.37,0.537129
3328,16.2578,6207.31,0.538787
3344,16.3359,6212.24,0.540594
3360,16.4141,6251.28,0.543864
3376,16.4922,6276.5,0.546678
3392,16.5703,6328.87,0.550129
3408,16.6484,6354.66,0.55153
3424,16.7266,6372.44,0.553802
3440,16.8047,6407.34,0.556204
3456,16.8828,6440.48,0.559845
3472,16.9609,6475.56,0.563342
3488,17.0391,6508.69,0.56509
3504,17.1172,6535.61,0.567264
3520,17.1953,6543.9,0.5697186
3536,17.2734,6605.72,0.572251
3552,17.3516,6597.02,0.57313
3568,17.4297,6662.05,0.57827
3584,17.5078,6670.32,0.579844
3600,17.5859,6712.98,0.583331
3616,17.6641,6757.21,0.586468
3632,17.7422,6779.07,0.58724
3648,17.8203,6805.96,0.590508
3664,17.8984,6829.12,0.5939765
3680,17.9766,6882.87,0.597584
3696,18.0547,6891.01,0.598575
3712,18.1328,6948.07,0.602505
3728,18.2109,6957.07,0.603463
3744,18.2891,7005.52,0.606434
3760,18.3672,7019.4,0.608635
3776,18.4453,7049.57,0.612072
3792,18.5234,7081.7,0.613452
3808,18.6016,7096.04,0.617657
3824,18.6797,7158.66,0.620033
3840,18.7578,7166.72,0.622586
3856,18.8359,7226.16,0.626301
3872,18.9141,7210.08,0.625762
3888,18.9922,7278.7,0.630305
3904,19.0703,7292.25,0.631654
3920,19.1484,7334.01,0.635187
3936,19.2266,7365.8,0.638245
3952,19.3047,7367.25,0.641941
3968,19.3828,7425.75,0.643148
3984,19.4609,7439.92,0.645295
4000,19.5391,7482.91,0.647898
4016,19.6172,7462.99,0.651423
4032,19.6953,7547.86,0.652401
4048,19.7734,7569.88,0.656012
4064,19.8516,7593.33,0.6585
4080,19.9297,7628.23,0.6622
4096,20.0078,7652.19,0.663862
4112,20.0859,7700.94,0.6676389
4128,20.1641,7709.18,0.66843
4144,20.2422,7754.67,0.671645
4160,20.3203,7758.75,0.674053
4176,20.3984,7815.89,0.678865
4192,20.4766,7846.68,0.678814
4208,20.5547,7871.36,0.683665
4224,20.6328,7900.87,0.683879
4240,20.7109,7925.33,0.687684
4256,20.7891,7963.64,0.690891
4272,20.8672,7990.88,0.693093
4288,20.9453,8024.92,0.695087
4304,21.0234,8017.3,0.697411
4320,21.1016,8080.51,0.701132
4336,21.1797,8103.55,0.702399
4352,21.2578,8151.26,0.705972
4368,21.3359,8179.94,0.7082243
4384,21.4141,8184.77,0.7109915
4400,21.4922,8229.59,0.713491
4416,21.5703,8254.29,0.717062
4432,21.6484,8303.33,0.720111
4448,21.7266,8294.31,0.721458
4464,21.8047,8354.53,0.725341
4480,21.8828,8375.71,0.726632
4496,21.9609,8413.73,0.7305814
4512,22.0391,8438.59,0.730491
4528,22.1172,8462.17,0.734731
4544,22.1953,8510.22,0.7373656
4560,22.2734,8537.69,0.740823
4576,22.3516,8571.06,0.742806
4592,22.4297,8582.2,0.743856
4608,22.5078,8623.17,0.748206
4624,22.5859,8642.08,0.7494061
4640,22.6641,8693.12,0.754152
4656,22.7422,8733.14,0.755541
4672,22.8203,8749,0.757927
4688,22.8984,8775.68,0.761531
4704,22.9766,8818.56,0.763561
4720,23.0547,8853.39,0.766292
4736,23.1328,8859.08,0.768147
4752,23.2109,8898.51,0.772734
4768,23.2891,8921.57,0.77335
4784,23.3672,8964.45,0.776875
4800,23.4453,8970.49,0.777423
4816,23.5234,9026.51,0.782621
4832,23.6016,9048.09,0.785004
4848,23.6797,9076.37,0.787619
4864,23.7578,9114.53,0.789305
4880,23.8359,9115.07,0.791751
4896,23.9141,9169.81,0.793584
4912,23.9922,9182.36,0.79619
4928,24.0703,9245,0.800074
4944,24.1484,9252.49,0.802394
4960,24.2266,9279.96,0.804593
4976,24.3047,9309.57,0.80651
4992,24.3828,9356.11,0.810692
5008,24.4609,9383.09,0.8127321
5024,24.5391,9397.96,0.815084
5040,24.6172,9434.53,0.818729
5056,24.6953,9460.99,0.819896
5072,24.7734,9510.64,0.825004
5088,24.8516,9498.16,0.823752
5104,24.9297,9562.33,0.8285
5120,25.0078,9557.09,0.83075
5136,25.0859,9613.98,0.835023
5152,25.1641,9639.95,0.835458
5168,25.2422,9671.58,0.840246
5184,25.3203,9689.18,0.84172
5200,25.3984,9725.59,0.8437885
5216,25.4766,9774.85,0.8480711
5232,25.5547,9788.55,0.849418
5248,25.6328,9825.64,0.85121
5264,25.7109,9831.73,0.853351
5280,25.7891,9895.07,0.859026
5296,25.8672,9910.34,0.859323
5312,25.9453,9940.57,0.861647
5328,26.0234,9963.73,0.863379
5344,26.1016,10001.9,0.867489
5360,26.1797,10040.4,0.870937
5376,26.2578,10045.2,0.87106
5392,26.3359,10092.2,0.875075
5408,26.4141,10057.5,0.876985
5424,26.4922,10148.7,0.880997
5440,26.5703,10183.6,0.883256
5456,26.6484,10217.3,0.88588
5472,26.7266,10240.6,0.889096
5488,26.8047,10257.3,0.890855
5504,26.8828,10311.9,0.893999
5520,26.9609,10328.1,0.89651
5536,27.0391,10366.7,0.898417
5552,27.1172,10368.4,0.900607
5568,27.1953,10422.8,0.90314
5584,27.2734,10451.5,0.906185
5600,27.3516,10486.7,0.909538
5616,27.4297,10512.1,0.910809
5632,27.5078,10529.3,0.915306
5648,27.5859,10573.6,0.917051
5664,27.6641,10588.5,0.920177
5680,27.7422,10632,0.922704
5696,27.8203,10620.2,0.924666
5712,27.8984,10693.7,0.926228
5728,27.9766,10719,0.931016
5744,28.0547,10754.3,0.934121
5760,28.1328,10743.3,0.934972
5776,28.2109,10782.2,0.938133
5792,28.2891,10841.4,0.9416275
5808,28.3672,10855.9,0.942846
5824,28.4453,10892.4,0.94548
5840,28.5234,10889.1,0.94799
5856,28.6016,10965,0.951748
5872,28.6797,10983,0.954009
5888,28.7578,11011.9,0.957792
5904,28.8359,11026.4,0.956593
5920,28.9141,11065.3,0.961496
5936,28.9922,11101.1,0.963426
5952,29.0703,11134.1,0.968214
5968,29.1484,11162.9,0.97045
5984,29.2266,11153.7,0.970486
6000,29.3047,11207,0.973734
6016,29.3828,11230.3,0.977119
6032,29.4609,11278.2,0.979861
6048,29.5391,11268.4,0.979956
6064,29.6172,11328.5,0.983145
6080,29.6953,11358.1,0.9878124
6096,29.7734,11401.3,0.98928
6112,29.8516,11426.9,0.993157
6128,29.9297,11416.7,0.993957
6144,30.0078,11471.9,0.998072
6160,30.0859,11488.5,0.999678
6176,30.1641,11550,1.00264
6192,30.2422,11513.5,1.00395
6208,30.3203,11585.8,1.00743
6224,30.3984,11619.3,1.01014
6240,30.4766,11653,1.01461
6256,30.5547,11693.1,1.01575
6272,30.6328,11677.4,1.01727
6288,30.7109,11733.1,1.02029
6304,30.7891,11752.2,1.02302
6320,30.8672,11812.6,1.02607
6336,30.9453,11774.8,1.0275
6352,31.0234,11855.5,1.03145
6368,31.1016,11858,1.03377
6384,31.1797,11917.7,1.03693
6400,31.2578,11943.9,1.03793
6416,31.3359,11977.2,1.04239
6432,31.4141,12002.5,1.04372
6448,31.4922,12019.6,1.04576
6464,31.5703,12074.5,1.05065
6480,31.6484,12066.3,1.05043
6496,31.7266,12124.1,1.05534
6512,31.8047,12129.9,1.057043
6528,31.8828,12185.4,1.05992
6544,31.9609,12201.5,1.06161
6560,32.0391,12225,1.06498
6576,32.1172,12254.1,1.06794
6592,32.1953,12289.1,1.07044
6608,32.2734,12331.5,1.07247
6624,32.3516,12336.4,1.07398
6640,32.4297,12382.7,1.07754
6656,32.5078,12385.9,1.079831
6672,32.5859,12449.8,1.08389
6688,32.6641,12464.4,1.08556
6704,32.7422,12494.5,1.08829
6720,32.8203,12528,1.09227
6736,32.8984,12536.6,1.09425
6752,32.9766,12588.9,1.09649
6768,33.0547,12611.8,1.09871
6784,33.1328,12651.6,1.10206
6800,33.2109,12648.7,1.10393
6816,33.2891,12700.9,1.107489
6832,33.3672,12726.5,1.10859
6848,33.4453,12758.5,1.11173
6864,33.5234,12790.7,1.11436
6880,33.6016,12785.5,1.11777
6896,33.6797,12848.4,1.1209
6912,33.7578,12875.2,1.121744
6928,33.8359,12911.2,1.12505
6944,33.9141,12898.4,1.12571
6960,33.9922,12966.5,1.13196
6976,34.0703,12975,1.13149
6992,34.1484,13027.6,1.13577
7008,34.2266,13030,1.13647
7024,34.3047,13066.9,1.13956
7040,34.3828,13110.2,1.14395
7056,34.4609,13135,1.146112
7072,34.5391,13164.8,1.14872
7088,34.6172,13182,1.15052
7104,34.6953,13228.7,1.15381
7120,34.7734,13245.6,1.15515
7136,34.8516,13290.3,1.15968
7152,34.9297,13306,1.16052
7168,35.0078,13323.5,1.16475
7184,35.0859,13359.7,1.16586
7200,35.1641,13386.9,1.17014
7216,35.2422,13420.5,1.17221
7232,35.3203,13413.4,1.17377
7248,35.3984,13492.7,1.18002
7264,35.4766,13513,1.17945
7280,35.5547,13546.7,1.18391
7296,35.6328,13533.4,1.18223
7312,35.7109,13576.5,1.18761
7328,35.7891,13626.6,1.19079
7344,35.8672,13652.7,1.19388
7360,35.9453,13687.3,1.195165
7376,36.0234,13702.8,1.19713
7392,36.1016,13744.3,1.19892
7408,36.1797,13764.7,1.20324
7424,36.2578,13810.4,1.20689
7440,36.3359,13804.4,1.20727
7456,36.4141,13857.1,1.2108
7472,36.4922,13890.8,1.21357
7488,36.5703,13924.8,1.21588
7504,36.6484,13948,1.21834
7520,36.7266,13969.4,1.22181
7536,36.8047,13994.2,1.2239
7552,36.8828,14020,1.22717
7568,36.9609,14067.9,1.22963
7584,37.0391,14060.2,1.22986
7600,37.1172,14099.9,1.23513
7616,37.1953,14139.3,1.237
7632,37.2734,14180.1,1.24064
7648,37.3516,14203.4,1.24284
7664,37.4297,14219.3,1.244
7680,37.5078,14258.2,1.2478
7696,37.5859,14274.8,1.24984
7712,37.6641,14326.9,1.25395
7728,37.7422,14327,1.25504
7744,37.8203,14371.7,1.25688
7760,37.8984,14392.7,1.25873
7776,37.9766,14432.7,1.26302
7792,38.0547,14471,1.2659
7808,38.1328,14483.1,1.26632
7824,38.2109,14512.2,1.2701
7840,38.2891,14537.5,1.27272
7856,38.3672,14581.7,1.27673
7872,38.4453,14594.7,1.27786
7888,38.5234,14633.6,1.282757
7904,38.6016,14643,1.28224
7920,38.6797,14689.6,1.28595
7936,38.7578,14711.1,1.28935
7952,38.8359,14747.5,1.29043
7968,38.9141,14776.7,1.29479
7984,38.9922,14791,1.29813
8000,39.0703,14844.7,1.30048
8016,39.1484,14845.6,1.30023
8032,39.2266,14865.2,1.303504
8048,39.3047,14896.9,1.30702
8064,39.3828,14947.3,1.30988
8080,39.4609,14964.1,1.31029
8096,39.5391,14996.8,1.31445
8112,39.6172,15023.6,1.31823
8128,39.6953,15053.4,1.31974
8144,39.7734,15092.5,1.32241
8160,39.8516,15105.7,1.32474
8176,39.9297,15148.1,1.32764
8192,40.0078,15158,1.32942
8208,40.0859,15209.7,1.33432
8224,40.1641,15224.6,1.33444
8240,40.2422,15265.1,1.33839
8256,40.3203,15286.3,1.34031
8272,40.3984,15300.3,1.34206
8288,40.4766,15339,1.34654
8304,40.5547,15383.9,1.34831
8320,40.6328,15407.9,1.35123
8336,40.7109,15406,1.35355
8352,40.7891,15470.7,1.35705
8368,40.8672,15478.4,1.35893
8384,40.9453,15523.8,1.36192
8400,41.0234,15535.5,1.36217
8416,41.1016,15567.4,1.36591
8432,41.1797,15601.1,1.3691
8448,41.2578,15632.9,1.37192
8464,41.3359,15666.6,1.37468
8480,41.4141,15670.2,1.37662
8496,41.4922,15726.8,1.37952
8512,41.5703,15734.6,1.38083
8528,41.6484,15790.3,1.38705
8544,41.7266,15769,1.38681
8560,41.8047,15829.6,1.39052
8576,41.8828,15861.1,1.39249
8592,41.9609,15887.8,1.3954
8608,42.0391,15928,1.39853
8624,42.1172,15921.6,1.401553
8640,42.1953,15972.1,1.40281
8656,42.2734,15989.5,1.4051
8672,42.3516,16045.6,1.40943
8688,42.4297,16040.5,1.40998
8704,42.5078,16086.9,1.41364
8720,42.5859,16111.8,1.41554
8736,42.6641,16144.1,1.41874
8752,42.7422,16178.3,1.42121
8768,42.8203,16175.4,1.42335
8784,42.8984,16238.2,1.42703
8800,42.9766,16265.5,1.42734
8816,43.0547,16302,1.43189
8832,43.1328,16305.7,1.43311
8848,43.2109,16350.6,1.43706
8864,43.2891,16363.6,1.43868
8880,43.3672,16416.7,1.44301
8896,43.4453,16436.8,1.44483
8912,43.5234,16440.2,1.44695
8928,43.6016,16483.4,1.44912
8944,43.6797,16509.5,1.45298
8960,43.7578,16557.3,1.45657
8976,43.8359,16563.2,1.45694
8992,43.9141,16607.7,1.46153
9008,43.9922,16628.3,1.46234
9024,44.0703,16660.3,1.46623
9040,44.1484,16692.7,1.46986
9056,44.2266,16705.1,1.47126
9072,44.3047,16749.6,1.47348
9088,44.3828,16784.1,1.47836
9104,44.4609,16808.4,1.48033
9120,44.5391,16816.8,1.48065
9136,44.6172,16850,1.48449
9152,44.6953,16866.7,1.48695
9168,44.7734,16919.1,1.489424
9184,44.8516,16948.7,1.49249
9200,44.9297,16964.3,1.49416
9216,45.0078,17001.2,1.496666
9232,45.0859,17021.1,1.50013
9248,45.1641,17063.7,1.50325
9264,45.2422,17033.5,1.502902
9280,45.3203,17114.8,1.50748
9296,45.3984,17125.1,1.51013
9312,45.4766,17181.7,1.51364
9328,45.5547,17209.4,1.51583
9344,45.6328,17233.9,1.51838
9360,45.7109,17234.4,1.52004
9376,45.7891,17278.4,1.52344
9392,45.8672,17323.2,1.52749
9408,45.9453,17324,1.52785
9424,46.0234,17373.5,1.53155
9440,46.1016,17386.8,1.53275
9456,46.1797,17432.9,1.53782
9472,46.2578,17447.5,1.538
9488,46.3359,17477.5,1.54218
9504,46.4141,17486.9,1.54132
9520,46.4922,17526,1.54693
9536,46.5703,17575.9,1.54895
9552,46.6484,17590.8,1.55247
9568,46.7266,17631.2,1.555122
9584,46.8047,17635.5,1.55568
9600,46.8828,17682.9,1.55986
9616,46.9609,17705.9,1.56334
9632,47.0391,17740.9,1.56467
9648,47.1172,17726.9,1.56643
9664,47.1953,17798.5,1.57035
9680,47.2734,17828.5,1.57221
9696,47.3516,17843,1.57615
9712,47.4297,17862.5,1.57729
9728,47.5078,17880.9,1.58083
9744,47.5859,17936.4,1.58378
9760,47.6641,17947.1,1.586
9776,47.7422,17995.7,1.589381
9792,47.8203,18007.9,1.59042
9808,47.8984,18051.1,1.59415
9824,47.9766,18073.8,1.59764
9840,48.0547,18100.7,1.598276
9856,48.1328,18138.5,1.60139
9872,48.2109,18154.6,1.60398
9888,48.2891,18206.8,1.60795
9904,48.3672,18207.8,1.60945
9920,48.4453,18262.2,1.61267
9936,48.5234,18251.1,1.6128
9952,48.6016,18303.5,1.61762
9968,48.6797,18341.5,1.62154
9984,48.7578,18365.6,1.62332
10000,48.8359,18397.4,1.6265
10016,48.9141,18395.2,1.62818
10032,48.9922,18456.4,1.63055
10048,49.0703,18469.5,1.63273
10064,49.1484,18525.5,1.63682
10080,49.2266,18502.5,1.6373
10096,49.3047,18561.5,1.64118
10112,49.3828,18588.9,1.64425
10128,49.4609,18626.4,1.64634
10144,49.5391,18644,1.64959
10160,49.6172,18648.2,1.65251
10176,49.6953,18713.4,1.65506
10192,49.7734,18731,1.65637
10208,49.8516,18756.3,1.6594
10224,49.9297,18763.8,1.66096
10240,50.0078,18813.2,1.66616
10256,50.0859,18843.1,1.66753
10272,50.1641,18871.9,1.67027
10288,50.2422,18906.1,1.6726
10304,50.3203,18913.6,1.67479
10320,50.3984,18952.7,1.67825
10336,50.4766,18982.5,1.68143
10352,50.5547,19028.2,1.68316
10368,50.6328,19006.1,1.68295
10384,50.7109,19065.4,1.6888
10400,50.7891,19080.2,1.690114
10416,50.8672,19117.6,1.69426
10432,50.9453,19152.8,1.69655
10448,51.0234,19155.2,1.69841
10464,51.1016,19213.6,1.70196
10480,51.1797,19225.5,1.70487
10496,51.2578,19273,1.70803
10512,51.3359,19251.7,1.70854
10528,51.4141,19320.1,1.71093
10544,51.4922,19344.8,1.71368
10560,51.5703,19376.2,1.71606
10576,51.6484,19371,1.71788
10592,51.7266,19414.4,1.72091
10608,51.8047,19442.1,1.724854
10624,51.8828,19464.9,1.72799
10640,51.9609,19519,1.73017
10656,52.0391,19521.8,1.73212
10672,52.1172,19555,1.73363
10688,52.1953,19583.2,1.73708
10704,52.2734,19624.7,1.74015
10720,52.3516,19631.7,1.74145
10736,52.4297,19670.3,1.74539
10752,52.5078,19697.5,1.74739
10768,52.5859,19722.5,1.75199
10784,52.6641,19754.3,1.75474
10800,52.7422,19778.8,1.75618
10816,52.8203,19819.6,1.75907
10832,52.8984,19833.5,1.7606
10848,52.9766,19887.1,1.76491
10864,53.0547,19882.3,1.76435
10880,53.1328,19931,1.7695
10896,53.2109,19947.6,1.77131
10912,53.2891,19977.9,1.775022
10928,53.3672,20029.1,1.77784
10944,53.4453,20039.1,1.77851
10960,53.5234,20075.2,1.78187
10976,53.6016,20081.3,1.78416
10992,53.6797,20136,1.78878
11008,53.7578,20117.2,1.78862
11024,53.8359,20189,1.79372
11040,53.9141,20190.5,1.79319
11056,53.9922,20231,1.79764
11072,54.0703,20263.2,1.80079
11088,54.1484,20289.6,1.80351
11104,54.2266,20301,1.80526
11120,54.3047,20325.1,1.80805
11136,54.3828,20373.4,1.81042
11152,54.4609,20392.5,1.81284
11168,54.5391,20429.6,1.8158
11184,54.6172,20427.9,1.81709
11200,54.6953,20486.3,1.82117
11216,54.7734,20506.4,1.82401
11232,54.8516,20538.2,1.82598
11248,54.9297,20563.4,1.82751
11264,55.0078,20559.4,1.83087
11280,55.0859,20633.5,1.83465
11296,55.1641,20636.4,1.836028
11312,55.2422,20683.8,1.83951
11328,55.3203,20692.6,1.83983
11344,55.3984,20727.6,1.8441
11360,55.4766,20758.4,1.8468
11376,55.5547,20787.3,1.84866
11392,55.6328,20809.9,1.8523
11408,55.7109,20809.2,1.85437
11424,55.7891,20876,1.85845
11440,55.8672,20889.6,1.86036
11456,55.9453,20927.4,1.86299
11472,56.0234,20929.2,1.8645
11488,56.1016,20974.7,1.86793
11504,56.1797,21002.2,1.87055
11520,56.2578,21044.2,1.87346
11536,56.3359,21059.9,1.87457
11552,56.4141,21060.3,1.87761
11568,56.4922,21110.4,1.88041
11584,56.5703,21145,1.88356
11600,56.6484,21181.2,1.88652
11616,56.7266,21172.4,1.887529
11632,56.8047,21234.6,1.89151
11648,56.8828,21223.1,1.89312
11664,56.9609,21282.8,1.8975
11680,57.0391,21310.7,1.89767
11696,57.1172,21334.9,1.9028
11712,57.1953,21375.8,1.90478
11728,57.2734,21389.7,1.90703
11744,57.3516,21423.8,1.90979
11760,57.4297,21443.5,1.91092
11776,57.5078,21483.3,1.91417
11792,57.5859,21501.3,1.91547
11808,57.6641,21544.4,1.920581
11824,57.7422,21551,1.9209
11840,57.8203,21576.8,1.92338
11856,57.8984,21602.2,1.9275
11872,57.9766,21628.1,1.93085
11888,58.0547,21674,1.93327
11904,58.1328,21675.4,1.93461
11920,58.2109,21723.9,1.93907
11936,58.2891,21746.2,1.94061
11952,58.3672,21787.1,1.94417
11968,58.4453,21806.1,1.94494
11984,58.5234,21821.7,1.94932
12000,58.6016,21859.3,1.95142
12016,58.6797,21878.8,1.9543
12032,58.7578,21919.4,1.95499
12048,58.8359,21895,1.95798
12064,58.9141,21955.9,1.95976
12080,58.9922,21988.7,1.96215
12096,59.0703,22027.8,1.96705
12112,59.1484,22017.6,1.96758
12128,59.2266,22054.1,1.97022
12144,59.3047,22103.3,1.974902
12160,59.3828,22137.7,1.97683
12176,59.4609,22162.8,1.98031
12192,59.5391,22172.9,1.98157
12208,59.6172,22211.9,1.98501
12224,59.6953,22226.9,1.98701
12240,59.7734,22275.7,1.99061
12256,59.8516,22295,1.99108
12272,59.9297,22322,1.99507
12288,60.0078,22347.4,1.99637
12304,60.0859,22369.3,1.99922
12320,60.1641,22395,2.00201
12336,60.2422,22414.5,2.00478
12352,60.3203,22457.6,2.00622
12368,60.3984,22468.1,2.00842
12384,60.4766,22522.4,2.01405
12400,60.5547,22540.5,2.01621
12416,60.6328,22575.5,2.018774
12432,60.7109,22582.8,2.01912
12448,60.7891,22626,2.02405
12464,60.8672,22649,2.02656
12480,60.9453,22666.9,2.02943
12496,61.0234,22694.6,2.03
12512,61.1016,22724.6,2.03393
12528,61.1797,22771.8,2.0368
12544,61.2578,22768.9,2.03811
12560,61.3359,22821.3,2.04266
12576,61.4141,22817.7,2.04328
12592,61.4922,22866.9,2.04665
12608,61.5703,22891.6,2.05015
12624,61.6484,22928.7,2.05141
12640,61.7266,22948.4,2.05405
12656,61.8047,22962.7,2.05689
12672,61.8828,23007.6,2.06059
12688,61.9609,23028.1,2.06278
12704,62.0391,23062.9,2.06567
12720,62.1172,23067.3,2.06628
12736,62.1953,23114.2,2.07112
12752,62.2734,23138.7,2.07385
12768,62.3516,23166.9,2.07627
12784,62.4297,23198,2.07964
12800,62.5078,23207.9,2.08164
12816,62.5859,23271.1,2.08445
12832,62.6641,23279.3,2.08612
12848,62.7422,23325.4,2.09042
12864,62.8203,23306.5,2.09217
12880,62.8984,23372.6,2.09562
12896,62.9766,23401,2.09876
12912,63.0547,23440.8,2.10189
12928,63.1328,23465.8,2.10337
12944,63.2109,23466,2.10618
12960,63.2891,23516.2,2.10857
12976,63.3672,23536.3,2.11114
12992,63.4453,23573.4,2.115
13008,63.5234,23555.8,2.11506
13024,63.6016,23618.5,2.1191
13040,63.6797,23625.4,2.12073
13056,63.7578,23672.6,2.12471
13072,63.8359,23700.1,2.12687
13088,63.9141,23707.2,2.12954
13104,63.9922,23759.8,2.13206
13120,64.0703,23748.6,2.13477
13136,64.1484,23812.7,2.137882
13152,64.2266,23790.3,2.14038
13168,64.3047,23863.7,2.14305
13184,64.3828,23881.7,2.14377
13200,64.4609,23914.6,2.14816
13216,64.5391,23934.5,2.1494
13232,64.6172,23959.9,2.151412
13248,64.6953,23980.9,2.15538
13264,64.7734,24022.7,2.15802
13280,64.8516,24040.2,2.15959
13296,64.9297,24050.9,2.16325
13312,65.0078,24095.3,2.16699
13328,65.0859,24111.2,2.16724
13344,65.1641,24148.7,2.17048
13360,65.2422,24147.2,2.17129
13376,65.3203,24191.3,2.17652
13392,65.3984,24221,2.17714
13408,65.4766,24247,2.18046
13424,65.5547,24286.5,2.18268
13440,65.6328,24272.2,2.18588
13456,65.7109,24325.7,2.1878
13472,65.7891,24356,2.1896
13488,65.8672,24391.2,2.19449
13504,65.9453,24398.2,2.19454
13520,66.0234,24418.1,2.1988
13536,66.1016,24457,2.20181
13552,66.1797,24492.2,2.20517
13568,66.2578,24524.6,2.20679
13584,66.3359,24538.1,2.20862
13600,66.4141,24569.9,2.21097
13616,66.4922,24572.8,2.21427
13632,66.5703,24623.7,2.21584
13648,66.6484,24653.6,2.2183
13664,66.7266,24661.1,2.221827
13680,66.8047,24697.5,2.22349
13696,66.8828,24738.7,2.22629
13712,66.9609,24764.6,2.22805
13728,67.0391,24769.6,2.23264
13744,67.1172,24815.3,2.236
13760,67.1953,24821.7,2.23776
13776,67.2734,24866.8,2.240555
13792,67.3516,24868.8,2.24157
13808,67.4297,24907.8,2.24597
13824,67.5078,24916.9,2.24624
13840,67.5859,24968.7,2.25067
13856,67.6641,24997.1,2.25233
13872,67.7422,25023.5,2.25558
13888,67.8203,25039.6,2.25734
13904,67.8984,25061.2,2.26053
13920,67.9766,25096.6,2.26365
13936,68.0547,25119.8,2.26445
13952,68.1328,25153.4,2.26831
13968,68.2109,25169.3,2.26943
13984,68.2891,25203.1,2.27295
14000,68.3672,25238.4,2.2756
14016,68.4453,25269.8,2.28047
14032,68.5234,25294.6,2.28167
14048,68.6016,25289.1,2.28406
14064,68.6797,25343.4,2.28571
14080,68.7578,25357.9,2.28857
14096,68.8359,25399.8,2.29208
14112,68.9141,25396.2,2.29381
14128,68.9922,25449.5,2.29723
14144,69.0703,25472.9,2.298759
14160,69.1484,25486.2,2.30206
14176,69.2266,25518.6,2.30442
14192,69.3047,25545.3,2.30667
14208,69.3828,25586.4,2.31087
14224,69.4609,25590.1,2.31249
14240,69.5391,25641.4,2.31559
14256,69.6172,25634,2.31716
14272,69.6953,25687,2.32109
14288,69.7734,25708.8,2.32376
14304,69.8516,25739.3,2.3263
14320,69.9297,25752.8,2.32761
14336,70.0078,25781,2.32985
14352,70.0859,25818.4,2.33359
14368,70.1641,25842.7,2.33735
14384,70.2422,25869,2.34022
14400,70.3203,25865.7,2.34115
14416,70.3984,25920,2.34467
14432,70.4766,25934.5,2.34613
14448,70.5547,25986.8,2.34913
14464,70.6328,25984.6,2.35099
14480,70.7109,26005.4,2.35424
14496,70.7891,26062.8,2.35661
14512,70.8672,26073.8,2.3594
14528,70.9453,26116,2.3628
14544,71.0234,26108.7,2.36466
14560,71.1016,26170.1,2.36926
14576,71.1797,26188.3,2.37046
14592,71.2578,26210.9,2.37121
14608,71.3359,26212.3,2.3743
14624,71.4141,26258.4,2.37801
14640,71.4922,26288.9,2.38068
14656,71.5703,26312.1,2.38253
14672,71.6484,26349.9,2.38609
14688,71.7266,26356.6,2.38771
14704,71.8047,26404,2.39087
14720,71.8828,26414.4,2.39433
14736,71.9609,26440.8,2.39652
14752,72.0391,26467.3,2.39867
14768,72.1172,26491.8,2.40119
14784,72.1953,26520.8,2.40266
14800,72.2734,26555.8,2.40701
14816,72.3516,26578.5,2.40856
14832,72.4297,26576.7,2.41068
14848,72.5078,26630.3,2.41395
14864,72.5859,26636.4,2.41656
14880,72.6641,26690.6,2.41931
14896,72.7422,26666.2,2.42009
14912,72.8203,26726.5,2.42431
14928,72.8984,26763.1,2.42604
14944,72.9766,26790.7,2.429894
14960,73.0547,26820.9,2.432241
14976,73.1328,26843.6,2.43497
14992,73.2109,26868.5,2.43711
15008,73.2891,26886.7,2.43988
15024,73.3672,26931.2,2.44448
15040,73.4453,26926.6,2.444505
15056,73.5234,26971.3,2.44861
15072,73.6016,26982.9,2.45134
15088,73.6797,27027.8,2.45437
15104,73.7578,27052.1,2.45694
15120,73.8359,27073.6,2.45757
15136,73.9141,27101.9,2.46051
15152,73.9922,27126.1,2.46398
15168,74.0703,27164,2.46794
15184,74.1484,27173.5,2.46683
15200,74.2266,27213.8,2.47187
15216,74.3047,27226.6,2.47285
15232,74.3828,27264.2,2.476366
15248,74.4609,27297.3,2.48067
15264,74.5391,27308.7,2.4821
15280,74.6172,27340.3,2.48476
15296,74.6953,27347.9,2.48693
15312,74.7734,27405.7,2.49038
15328,74.8516,27414.9,2.49292
15344,74.9297,27447.7,2.495374
15360,75.0078,27465.5,2.49708
15376,75.0859,27505.2,2.501637
15392,75.1641,27501,2.50027
15408,75.2422,27548.6,2.50403
15424,75.3203,27580.1,2.50883
15440,75.3984,27600.9,2.50902
15456,75.4766,27633.1,2.51296
15472,75.5547,27642.7,2.51519
15488,75.6328,27673.6,2.51939
15504,75.7109,27684.4,2.51881
15520,75.7891,27731.4,2.52365
15536,75.8672,27748.6,2.525615
15552,75.9453,27775.8,2.52914
15568,76.0234,27785.3,2.53111
15584,76.1016,27826.3,2.53431
15600,76.1797,27861.1,2.53697
15616,76.2578,27879.9,2.538909
15632,76.3359,27908.6,2.54139
15648,76.4141,27912.6,2.54284
15664,76.4922,27962,2.54712
15680,76.5703,27981.4,2.5491
15696,76.6484,28023.3,2.55246
15712,76.7266,28039,2.55548
15728,76.8047,28055.6,2.55675
15744,76.8828,28085.1,2.55974
15760,76.9609,28109.6,2.56291
15776,77.0391,28152.3,2.56538
15792,77.1172,28123.7,2.566895
15808,77.1953,28198.4,2.56921
15824,77.2734,28213.9,2.57288
15840,77.3516,28254.7,2.57731
15856,77.4297,28270.6,2.57781
15872,77.5078,28296,2.57972
15888,77.5859,28317.5,2.58323
15904,77.6641,28332.1,2.58637
15920,77.7422,28373.8,2.58834
15936,77.8203,28362,2.59076
15952,77.8984,28424.6,2.59348
15968,77.9766,28446.1,2.59431
15984,78.0547,28487.4,2.59952
16000,78.1328,28503.7,2.60049
16016,78.2109,28532.3,2.60379
16032,78.2891,28555.5,2.60517
16048,78.3672,28590.7,2.60872
16064,78.4453,28612.2,2.61266
16080,78.5234,28620,2.61396
16096,78.6016,28672.5,2.61715
16112,78.6797,28684.1,2.61953
16128,78.7578,28713.2,2.623
16144,78.8359,28726.5,2.62309
16160,78.9141,28755.5,2.627537
16176,78.9922,28790.2,2.63052
16192,79.0703,28820.1,2.63327
16208,79.1484,28842.6,2.635345
16224,79.2266,28854.5,2.63613
16240,79.3047,28861.5,2.640029
16256,79.3828,28913.4,2.64321
16272,79.4609,28953.9,2.64587
16288,79.5391,28962,2.64783
16304,79.6172,28981.6,2.65013
16320,79.6953,29020.6,2.65385
16336,79.7734,29057,2.65588
16352,79.8516,29072.6,2.65792
16368,79.9297,29077,2.66122
16384,80.0078,29108.6,2.66496
16400,80.0859,29125.3,2.66633
16416,80.1641,29177.5,2.67015
16432,80.2422,29171.6,2.67082
16448,80.3203,29227.3,2.67379
16464,80.3984,29232.9,2.67649
16480,80.4766,29292.8,2.67913
16496,80.5547,29313.3,2.68231
16512,80.6328,29315.5,2.68373
16528,80.7109,29353.9,2.68787
16544,80.7891,29382.7,2.69023
16560,80.8672,29422.8,2.69246
16576,80.9453,29428.3,2.69541
16592,81.0234,29456.8,2.69813
16608,81.1016,29475.2,2.70052
16624,81.1797,29523.3,2.70403
16640,81.2578,29538.1,2.705718
16656,81.3359,29564.9,2.70818
16672,81.4141,29582.2,2.71118
16688,81.4922,29598.9,2.71282
16704,81.5703,29653.2,2.71789
16720,81.6484,29656.6,2.71706
16736,81.7266,29690.2,2.72194
16752,81.8047,29702.5,2.72406
16768,81.8828,29746.1,2.72765
16784,81.9609,29738.5,2.72768
16800,82.0391,29783.3,2.73168
16816,82.1172,29807.8,2.73511
16832,82.1953,29825.7,2.73678
16848,82.2734,29874.1,2.74113
16864,82.3516,29885.1,2.74282
16880,82.4297,29923.5,2.74527
16896,82.5078,29923.7,2.74669
16912,82.5859,29967.7,2.7511
16928,82.6641,29992.1,2.75199
16944,82.7422,30026.9,2.75528
16960,82.8203,30040.7,2.75853
16976,82.8984,30058.4,2.76091
16992,82.9766,30097.5,2.76416
17008,83.0547,30124.5,2.7657
17024,83.1328,30147.9,2.76878
17040,83.2109,30151.8,2.76982
17056,83.2891,30201.2,2.774
17072,83.3672,30218.5,2.77554
17088,83.4453,30246.8,2.779
17104,83.5234,30269.1,2.78022
17120,83.6016,30287.5,2.78224
17136,83.6797,30322.9,2.78873
17152,83.7578,30350.9,2.78925
17168,83.8359,30379.1,2.79149
17184,83.9141,30350,2.79604
17200,83.9922,30421.4,2.79762
17216,84.0703,30448.2,2.79958
17232,84.1484,30478.6,2.80296
17248,84.2266,30498.5,2.80482
17264,84.3047,30523.8,2.80839
17280,84.3828,30551.1,2.81048
17296,84.4609,30574.9,2.81356
17312,84.5391,30606.2,2.81532
17328,84.6172,30605.1,2.81802
17344,84.6953,30658.4,2.82044
17360,84.7734,30652.9,2.82254
17376,84.8516,30696,2.82637
17392,84.9297,30701.9,2.82695
17408,85.0078,30741.3,2.83177
17424,85.0859,30779.2,2.83302
17440,85.1641,30807.9,2.83785
17456,85.2422,30836.9,2.83918
17472,85.3203,30817.7,2.840939
17488,85.3984,30883.8,2.8428
17504,85.4766,30886.5,2.84575
17520,85.5547,30929.9,2.84887
17536,85.6328,30940.2,2.8501
17552,85.7109,30970.5,2.85361
17568,85.7891,30995.2,2.857718
17584,85.8672,31025.1,2.85965
17600,85.9453,31057.1,2.86277
17616,86.0234,31068.7,2.86468
17632,86.1016,31085.9,2.86725
17648,86.1797,31122.4,2.87098
17664,86.2578,31150.9,2.87173
17680,86.3359,31141.5,2.87476
17696,86.4141,31193.6,2.87701
17712,86.4922,31218.8,2.8789
17728,86.5703,31248.7,2.88233
17744,86.6484,31273.2,2.88537
17760,86.7266,31295.4,2.88714
17776,86.8047,31318.2,2.88992
17792,86.8828,31349.8,2.89274
17808,86.9609,31376.1,2.895371
17824,87.0391,31360.3,2.8972
17840,87.1172,31421.8,2.90051
17856,87.1953,31442.1,2.90297
17872,87.2734,31480.1,2.90478
17888,87.3516,31475.9,2.90794
17904,87.4297,31532.2,2.91105
17920,87.5078,31544.7,2.91421
17936,87.5859,31569.2,2.9158
17952,87.6641,31607,2.91903
17968,87.7422,31615.8,2.91973
17984,87.8203,31645,2.92533
18000,87.8984,31667.5,2.92592
18016,87.9766,31708.8,2.92992
18032,88.0547,31717.6,2.93077
18048,88.1328,31743.6,2.93483
18064,88.2109,31768.5,2.93805
18080,88.2891,31795.2,2.93994
18096,88.3672,31824.6,2.94226
18112,88.4453,31845.8,2.94554
18128,88.5234,31880,2.948
18144,88.6016,31890.5,2.94908
18160,88.6797,31928.8,2.95345
18176,88.7578,31948.2,2.955168
18192,88.8359,31978.1,2.95818
18208,88.9141,31991.7,2.96082
18224,88.9922,32013.7,2.964124
18240,89.0703,32051.4,2.96678
18256,89.1484,32073.7,2.96947
18272,89.2266,32105.6,2.97179
18288,89.3047,32121.5,2.97264
18304,89.3828,32150.5,2.97676
18320,89.4609,32164.2,2.978143
18336,89.5391,32192.1,2.9818
18352,89.6172,32212.7,2.98327
18368,89.6953,32242.2,2.9858
18384,89.7734,32278.6,2.9906
18400,89.8516,32296.8,2.99282
18416,89.9297,32323.8,2.99305
18432,90.0078,32322.9,2.99604
18448,90.0859,32375.3,3.00054
18464,90.1641,32397,3.00169
18480,90.2422,32426,3.00577
18496,90.3203,32431.7,3.00506
18512,90.3984,32466.3,3.01038
18528,90.4766,32495.4,3.01232
18544,90.5547,32526.3,3.01443
18560,90.6328,32544.4,3.01827
18576,90.7109,32548.1,3.02107
18592,90.7891,32601.2,3.02362
18608,90.8672,32632.5,3.025686
18624,90.9453,32651.8,3.0294
18640,91.0234,32652.6,3.02966
18656,91.1016,32699.5,3.03441
18672,91.1797,32719,3.03705
18688,91.2578,32744.5,3.03932
18704,91.3359,32763.7,3.04141
18720,91.4141,32767,3.04314
18736,91.4922,32816.1,3.047
18752,91.5703,32844.2,3.04886
18768,91.6484,32867,3.05227
18784,91.7266,32876,3.05259
18800,91.8047,32917.6,3.057142
18816,91.8828,32944.7,3.05932
18832,91.9609,32966.2,3.061743
18848,92.0391,32991.3,3.06458
18864,92.1172,33004,3.067296
18880,92.1953,33040.4,3.07144
18896,92.2734,33060.7,3.07391
18912,92.3516,33094,3.07543
18928,92.4297,33111.1,3.07682
18944,92.5078,33139.3,3.081341
18960,92.5859,33160.8,3.08378
18976,92.6641,33193.3,3.086
18992,92.7422,33218.7,3.0881
19008,92.8203,33231.5,3.09041
19024,92.8984,33268.7,3.09251
19040,92.9766,33288.5,3.09691
19056,93.0547,33320.1,3.09912
19072,93.1328,33326.8,3.10137
19088,93.2109,33353.8,3.10354
19104,93.2891,33383.8,3.106348
19120,93.3672,33414.7,3.10971
19136,93.4453,33450.1,3.111361
19152,93.5234,33444.3,3.11416
19168,93.6016,33487.6,3.11768
19184,93.6797,33503.4,3.11987
19200,93.7578,33544.7,3.12379
19216,93.8359,33558.6,3.12484
19232,93.9141,33563.8,3.12846
19248,93.9922,33617.3,3.130893
19264,94.0703,33629.4,3.133424
19280,94.1484,33663.8,3.13493
19296,94.2266,33670.7,3.13833
19312,94.3047,33708.9,3.14069
19328,94.3828,33723.7,3.14271
19344,94.4609,33764.8,3.14551
19360,94.5391,33773.4,3.14727
19376,94.6172,33814.6,3.15274
19392,94.6953,33809.5,3.15187
19408,94.7734,33858.7,3.15636
19424,94.8516,33877.1,3.15916
19440,94.9297,33888.6,3.16146
19456,95.0078,33921.5,3.16429
19472,95.0859,33942.5,3.16706
19488,95.1641,33974.1,3.168469
19504,95.2422,33995.2,3.1704
19520,95.3203,34023.8,3.17441
19536,95.3984,34030.6,3.17654
19552,95.4766,34085.2,3.18046
19568,95.5547,34089.4,3.18175
19584,95.6328,34114.8,3.18373
19600,95.7109,34126.9,3.18689
19616,95.7891,34158.4,3.189939
19632,95.8672,34195.3,3.19304
19648,95.9453,34206.9,3.19431
19664,96.0234,34243.1,3.198457
19680,96.1016,34246.3,3.1998
19696,96.1797,34291,3.20298
19712,96.2578,34294.8,3.20596
19728,96.3359,34335,3.208432
19744,96.4141,34338.7,3.20994
19760,96.4922,34385.2,3.21299
19776,96.5703,34410.4,3.21616
19792,96.6484,34426.3,3.21806
19808,96.7266,34457.6,3.22111
19824,96.8047,34469.1,3.22285
19840,96.8828,34505.5,3.22783
19856,96.9609,34522.3,3.22936
19872,97.0391,34554.8,3.23126
19888,97.1172,34549.5,3.23422
19904,97.1953,34590.9,3.23671
19920,97.2734,34630.3,3.23974
19936,97.3516,34644.2,3.241323
19952,97.4297,34662.6,3.24482
19968,97.5078,34673.9,3.24641
19984,97.5859,34718.5,3.2505
20000,97.6641,34741.3,3.25287
20016,97.7422,34772.5,3.25476
20032,97.8203,34769.5,3.25628
20048,97.8984,34805.2,3.25955
20064,97.9766,34841.7,3.26274
20080,98.0547,34868.5,3.2649
20096,98.1328,34881.1,3.26668
20112,98.2109,34899.2,3.27009
20128,98.2891,34939.7,3.2731
20144,98.3672,34952.7,3.27569
20160,98.4453,34988.9,3.27833
20176,98.5234,35001.4,3.28065
20192,98.6016,35038.8,3.28398
20208,98.6797,35059.8,3.28639
20224,98.7578,35071.5,3.28956
20240,98.8359,35112,3.29308
20256,98.9141,35103.9,3.2939
20272,98.9922,35150.5,3.29632
20288,99.0703,35181.3,3.29896
20304,99.1484,35205.2,3.30124
20320,99.2266,35206.8,3.30201
20336,99.3047,35245.2,3.30841
20352,99.3828,35268.6,3.31051
20368,99.4609,35302,3.313277
20384,99.5391,35326.1,3.31605
20400,99.6172,35321.9,3.31908
20416,99.6953,35366,3.32014
20432,99.7734,35390.5,3.32064
20448,99.8516,35420.3,3.32418
20464,99.9297,35423.3,3.32657
20480,100.008,35457.5,3.330292
20496,100.086,35486.9,3.33255
20512,100.164,35521.8,3.33655
20528,100.242,35525.3,3.33837
20544,100.32,35557.5,3.3411
20560,100.398,35585.8,3.34355
20576,100.477,35603.3,3.34489
20592,100.555,35639.5,3.34967
20608,100.633,35648,3.34978
20624,100.711,35682.4,3.35378
20640,100.789,35702.8,3.35619
20656,100.867,35728.6,3.36026
20672,100.945,35738.8,3.35926
20688,101.023,35772.3,3.36396
20704,101.102,35794.3,3.36728
20720,101.18,35816.5,3.36952
20736,101.258,35848.9,3.37145
20752,101.336,35852.2,3.37464
20768,101.414,35882.3,3.37758
20784,101.492,35899.3,3.37842
20800,101.57,35939.7,3.38368
20816,101.648,35963.2,3.3859
20832,101.727,35984.5,3.38705
20848,101.805,36008.4,3.39046
20864,101.883,36026.6,3.39232
20880,101.961,36061.4,3.39643
20896,102.039,36079.3,3.39856
20912,102.117,36103.8,3.400496
20928,102.195,36122.2,3.40289
20944,102.273,36161.1,3.40795
20960,102.352,36170.5,3.40855
20976,102.43,36202.1,3.4118
20992,102.508,36213.6,3.41312
21008,102.586,36249.9,3.41763
21024,102.664,36275.1,3.41916
21040,102.742,36294.9,3.42089
21056,102.82,36310.6,3.42337
21072,102.898,36330.2,3.426
21088,102.977,36374.3,3.43132
21104,103.055,36383.6,3.43147
21120,103.133,36407.7,3.43364
21136,103.211,36414.9,3.4349
21152,103.289,36464.4,3.43864
21168,103.367,36484.1,3.44199
21184,103.445,36509,3.44595
21200,103.523,36526.6,3.44676
21216,103.602,36539.1,3.44898
21232,103.68,36585.5,3.4545
21248,103.758,36591.2,3.45492
21264,103.836,36631.5,3.45855
21280,103.914,36631.5,3.459594
21296,103.992,36675.3,3.46431
21312,104.07,36693.3,3.46743
21328,104.148,36713,3.46855
21344,104.227,36735.6,3.46946
21360,104.305,36749,3.4743
21376,104.383,36791.9,3.47711
21392,104.461,36802.6,3.47893
21408,104.539,36841.1,3.48161
21424,104.617,36852.3,3.48383
21440,104.695,36882,3.48686
21456,104.773,36892,3.48887
21472,104.852,36924,3.49292
21488,104.93,36941.6,3.49516
21504,105.008,36969.4,3.49649
21520,105.086,36989.5,3.49995
21536,105.164,37020.7,3.50297
21552,105.242,37053.6,3.50541
21568,105.32,37046.7,3.50678
21584,105.398,37086.7,3.51131
21600,105.477,37104.5,3.51162
21616,105.555,37145.1,3.51593
21632,105.633,37164.8,3.51799
21648,105.711,37170.5,3.520736
21664,105.789,37208.4,3.52248
21680,105.867,37233,3.525496
21696,105.945,37263.1,3.52988
21712,106.023,37264.4,3.53045
21728,106.102,37308.8,3.53411
21744,106.18,37329.2,3.53739
21760,106.258,37351,3.53917
21776,106.336,37374.6,3.541018
21792,106.414,37397.6,3.54293
21808,106.492,37417.3,3.54811
21824,106.57,37447.2,3.54864
21840,106.648,37474.5,3.5505
21856,106.727,37474.4,3.55511
21872,106.805,37512.4,3.55759
21888,106.883,37536.5,3.56038
21904,106.961,37572.3,3.56129
21920,107.039,37583.6,3.564743
21936,107.117,37602.3,3.56646
21952,107.195,37617.9,3.56989
21968,107.273,37651.6,3.573715
21984,107.352,37680.9,3.57637
22000,107.43,37688.2,3.5766
22016,107.508,37715.4,3.57907
22032,107.586,37726.1,3.58228
22048,107.664,37777.6,3.58608
22064,107.742,37786.7,3.58709
22080,107.82,37809.5,3.58995
22096,107.898,37833,3.5929
22112,107.977,37869.6,3.59586
22128,108.055,37889.1,3.59885
22144,108.133,37893.6,3.5998
22160,108.211,37925.3,3.60417
22176,108.289,37944.9,3.60519
22192,108.367,37977,3.60908
22208,108.445,37993.7,3.61047
22224,108.523,38020.1,3.61396
22240,108.602,38037.7,3.61587
22256,108.68,38071.9,3.61889
22272,108.758,38097.4,3.62229
22288,108.836,38114.3,3.62538
22304,108.914,38143.9,3.62778
22320,108.992,38140,3.62778
22336,109.07,38187.6,3.63317
22352,109.148,38199.5,3.63399
22368,109.227,38221.9,3.63618
22384,109.305,38246,3.638957
22400,109.383,38280.8,3.64324
22416,109.461,38302,3.64608
22432,109.539,38312.2,3.64824
22448,109.617,38329.5,3.64988
22464,109.695,38350.5,3.65233
22480,109.773,38394.8,3.65616
22496,109.852,38395.9,3.65708
22512,109.93,38432.1,3.66129
22528,110.008,38432.8,3.66357
22544,110.086,38473.2,3.66765
22560,110.164,38496.2,3.66812
22576,110.242,38507,3.6704
22592,110.32,38535.2,3.67402
22608,110.398,38548.4,3.67605
22624,110.477,38584.4,3.68005
22640,110.555,38604.3,3.68221
22656,110.633,38620.2,3.68477
22672,110.711,38632.5,3.68651
22688,110.789,38662.7,3.69043
22704,110.867,38695.8,3.69144
22720,110.945,38712.2,3.69427
22736,111.023,38735.2,3.69756
22752,111.102,38746,3.69992
22768,111.18,38778.1,3.70298
22784,111.258,38797.4,3.70467
22800,111.336,38825.8,3.7087
22816,111.414,38833.8,3.70983
22832,111.492,38871.8,3.71233
22848,111.57,38878.3,3.71326
22864,111.648,38912.8,3.71743
22880,111.727,38932.7,3.72112
22896,111.805,38944.2,3.72307
22912,111.883,38978.9,3.72621
22928,111.961,38989.8,3.72811
22944,112.039,39024.5,3.73054
22960,112.117,38998.3,3.73411
22976,112.195,39063.4,3.73755
22992,112.273,39089,3.74042
23008,112.352,39107.8,3.74062
23024,112.43,39127.8,3.74354
23040,112.508,39133.2,3.74693
23056,112.586,39180.4,3.75027
23072,112.664,39202.9,3.75208
23088,112.742,39229.4,3.75472
23104,112.82,39248.5,3.756731
23120,112.898,39269.8,3.76008
23136,112.977,39299.6,3.76237
23152,113.055,39315.1,3.76502
23168,113.133,39333.2,3.76829
23184,113.211,39346.8,3.77025
23200,113.289,39374.4,3.77314
23216,113.367,39405.6,3.77573
23232,113.445,39428.2,3.7772
23248,113.523,39437.8,3.78011
23264,113.602,39465.3,3.78302
23280,113.68,39491.2,3.78717
23296,113.758,39527.5,3.79
23312,113.836,39539.3,3.78997
23328,113.914,39554.6,3.79481
23344,113.992,39582.2,3.79647
23360,114.07,39592.2,3.7993
23376,114.148,39625.5,3.80181
23392,114.227,39639.1,3.80505
23408,114.305,39673.7,3.80716
23424,114.383,39684.5,3.80834
23440,114.461,39725.4,3.81354
23456,114.539,39720.9,3.81283
23472,114.617,39758.4,3.81639
23488,114.695,39782,3.82058
23504,114.773,39804.8,3.82186
23520,114.852,39825.6,3.82552
23536,114.93,39836.8,3.82718
23552,115.008,39879,3.83153
23568,115.086,39893.4,3.83281
23584,115.164,39916,3.83625
23600,115.242,39942.5,3.83964
23616,115.32,39963.1,3.84009
23632,115.398,39983.2,3.84339
23648,115.477,40015.8,3.8467
23664,115.555,40031.9,3.84767
23680,115.633,40041,3.85088
23696,115.711,40074.9,3.85536
23712,115.789,40079.3,3.85677
23728,115.867,40121.5,3.85865
23744,115.945,40126,3.86134
23760,116.023,40158.6,3.86436
23776,116.102,40179.4,3.866503
23792,116.18,40210.7,3.87086
23808,116.258,40232.1,3.87397
23824,116.336,40245.6,3.87456
23840,116.414,40264.6,3.87754
23856,116.492,40287.5,3.88058
23872,116.57,40319.2,3.88281
23875,116.585,-3362.54,4.02938