File: ASM109_2021_data/MTS/Quasi/MTS_quasi_8.csv
,Time [s],Load [N],Displacement [mm]
0,0.00683594,-260.084,-0.00138491
17,0.08984375,-160.128,0.00313327
34,0.172852,-140.888,0.00281319
51,0.255859,-93.7848,0.00720307
68,0.338867,-63.04,0.0115746
85,0.421875,-66.3092,0.0122671
102,0.504883,10.3881,0.0173141
119,0.587891,38.8269,0.0179037
136,0.670898,74.1717,0.0228256
153,0.753906,109.629,0.0259964
170,0.836914,111.878,0.0258431
187,0.919922,177.99,0.0302093
204,1.00293,206.965,0.0327873
221,1.08594,253.719,0.0357118
238,1.16895,286.265,0.0377816
255,1.25195,295.292,0.0402385
272,1.33496,342.767,0.0442734
289,1.41797,357.061,0.0451103
306,1.50098,400.401,0.0488144
323,1.58398,448.877,0.0505918
340,1.66699,484.866,0.0543796
357,1.75,516.292,0.05715698
374,1.83301,515.886,0.0587855
391,1.91602,571.608,0.06165415
408,1.99902,584.797,0.0643207
425,2.08203,654.369,0.0686578
442,2.16504,685.083,0.0702091
459,2.24805,685.794,0.0721657
476,2.33105,745.67,0.07653594
493,2.41406,753.879,0.0792767
510,2.49707,812.878,0.0833859
527,2.58008,850.524,0.0845906
544,2.66309,876.357,0.0872585
561,2.74609,909.628,0.0895549
578,2.8291,918.026,0.0908643
595,2.91211,982.324,0.0952488
612,2.99512,1022.27,0.0984058
629,3.078125,1047.51,0.100782
646,3.16113,1100.73,0.102826
663,3.24414,1091.94,0.1058346
680,3.32715,1155.17,0.109175
697,3.41016,1171.69,0.111709
714,3.49316,1218.37,0.112864
731,3.57617,1261.64,0.116073
748,3.65918,1290.85,0.120323
765,3.74219,1319.49,0.120918
782,3.8252,1318.08,0.124868
799,3.9082,1379.95,0.129222
816,3.99121,1408.32,0.130983
833,4.07422,1447.43,0.134977
850,4.15723,1493.06,0.137241
867,4.24023,1478.39,0.138588
884,4.32324,1539.52,0.140504
901,4.40625,1576.42,0.142578
918,4.48926,1612.85,0.147433
935,4.57227,1653.71,0.150011
952,4.65527,1674.13,0.153852
969,4.73828,1723.54,0.156614
986,4.82129,1730.5,0.157876
1003,4.9043,1785.02,0.162254
1020,4.9873,1820.51,0.163885
1037,5.07031,1841.31,0.1673685
1054,5.15332,1896.41,0.170335
1071,5.23633,1877.56,0.17188
1088,5.31934,1943.55,0.175429
1105,5.40234,1979.38,0.177209
1122,5.48535,2021.35,0.181654
1139,5.56836,2064.75,0.183047
1156,5.65137,2069.19,0.185229
1173,5.734375,2118.73,0.188491
1190,5.81738,2135.59,0.190664
1207,5.90039,2183.18,0.196472
1224,5.9834,2224.87,0.197863
1241,6.06641,2245.08,0.201226
1258,6.14941,2293.8,0.204187
1275,6.23242,2277.42,0.205827
1292,6.31543,2348.86,0.209355
1309,6.39844,2386.84,0.211098
1326,6.48145,2428.58,0.213203
1343,6.56445,2458.2,0.217612
1360,6.64746,2455.73,0.219131
1377,6.73047,2525.02,0.2218093
1394,6.81348,2547.69,0.223156
1411,6.89648,2592.33,0.228142
1428,6.97949,2631.98,0.231272
1445,7.0625,2642.28,0.234245
1462,7.14551,2699.59,0.237066
1479,7.22852,2690.37,0.238523
1496,7.31152,2740.72,0.244499
1513,7.39453,2792.35,0.245483
1530,7.47754,2816.32,0.246897
1547,7.56055,2855.77,0.250256
1564,7.64355,2829.19,0.250043
1581,7.72656,2912.44,0.25571
1598,7.80957,2948.74,0.258256
1615,7.89258,2978.17,0.261871
1632,7.97559,3011.83,0.265128
1649,8.05859,3038.55,0.266003
1666,8.1416,3089.92,0.269893
1683,8.22461,3093.69,0.270366
1700,8.30762,3141.42,0.275468
1717,8.390625,3184.76,0.27843
1734,8.47363,3210.15,0.279357
1751,8.55664,3251.05,0.283842
1768,8.63965,3234.33,0.284358
1785,8.72266,3302.9,0.289009
1802,8.80566,3343.79,0.290766
1819,8.88867,3371.5,0.294341
1836,8.97168,3420.39,0.29848
1853,9.05469,3420.18,0.298594
1870,9.1377,3487.59,0.302823
1887,9.2207,3474.19,0.304904
1904,9.30371,3540.85,0.308848
1921,9.38672,3588.41,0.311163
1938,9.46973,3608.76,0.312232
1955,9.55273,3632.44,0.316235
1972,9.63574,3633.38,0.317943
1989,9.71875,3711.37,0.321359
2006,9.80176,3741.3,0.32513
2023,9.88477,3755.15,0.327837
2040,9.96777,3812.02,0.329965
2057,10.0508,3799.88,0.332972
2074,10.1338,3871.93,0.336058
2091,10.2168,3886.39,0.337573
2108,10.2998,3934.47,0.340994
2125,10.3828,3979.13,0.344752
2142,10.4658,3997.73,0.347056
2159,10.5488,4036.36,0.349663
2176,10.6318,4034.32,0.352798
2193,10.7148,4093.83,0.355534
2210,10.7979,4139.84,0.3575103
2227,10.8809,4161.76,0.359596
2244,10.9639,4205.84,0.364471
2261,11.0469,4208.4,0.364539
2278,11.1299,4259.29,0.368423
2295,11.2129,4287,0.370423
2312,11.2959,4336.35,0.375672
2329,11.3789,4365.17,0.377994
2346,11.4619,4389.63,0.37839
2363,11.5449,4441.2,0.384269
2380,11.6279,4405.23,0.384498
2397,11.7109,4477.5,0.389262
2414,11.7939,4542.3,0.390529
2431,11.877,4550.71,0.3944318
2448,11.96,4596.9,0.396726
2465,12.043,4579.57,0.398201
2482,12.126,4662.38,0.402201
2499,12.209,4681.22,0.4039304
2516,12.292,4692.9,0.406682
2533,12.375,4763.69,0.41054
2550,12.458,4774.18,0.411331
2567,12.541,4810.86,0.415189
2584,12.624,4848.76,0.418667
2601,12.707,4885.19,0.423183
2618,12.79,4925.67,0.424097
2635,12.873,4941.09,0.427376
2652,12.9561,4992.83,0.430575
2669,13.0391,4972.53,0.432423
2686,13.12207,5043.05,0.434976
2703,13.2051,5072.31,0.438461
2720,13.2881,5103.87,0.440793
2737,13.3711,5153.89,0.443286
2754,13.4541,5149.93,0.444564
2771,13.5371,5221.26,0.449857
2788,13.6201,5238.19,0.45038
2805,13.7031,5272.18,0.455534
2822,13.7861,5316.56,0.457768
2839,13.8691,5331.28,0.460648
2856,13.9521,5384.79,0.465311
2873,14.0352,5365.4,0.464682
2890,14.1182,5436.14,0.468438
2907,14.2012,5463.41,0.470726
2924,14.28418,5479.33,0.475027
2941,14.3672,5530.2,0.477626
2958,14.4502,5541,0.479446
2975,14.5332,5603.12,0.483938
2992,14.6162,5615.07,0.48333
3009,14.6992,5660.63,0.486269
3026,14.7822,5712.6,0.492256
3043,14.8652,5722.7,0.493899
3060,14.9482,5767.98,0.497018
3077,15.03125,5776.03,0.497601
3094,15.1143,5810.39,0.5013938
3111,15.1973,5852.73,0.502725
3128,15.2803,5885.9,0.506554
3145,15.3633,5936.07,0.510371
3162,15.4463,5924.88,0.51019
3179,15.5293,5971.29,0.516668
3196,15.6123,6017.48,0.518378
3213,15.6953,6058.56,0.521737
3230,15.77832,6097.83,0.523276
3247,15.8613,6110.06,0.525726
3264,15.9443,6156.16,0.528955
3281,16.0273,6159.28,0.532182
3298,16.1104,6207.64,0.535425
3315,16.1934,6248.01,0.537933
3332,16.2764,6265.84,0.540407
3349,16.3594,6319.88,0.544416
3366,16.4424,6323.74,0.54408
3383,16.5254,6356.7,0.549489
3400,16.6084,6407.04,0.55085
3417,16.6914,6433.7,0.554882
3434,16.7744,6478.73,0.556715
3451,16.8574,6496.57,0.559631
3468,16.94043,6542.19,0.563912
3485,17.0234,6558.91,0.564201
3502,17.1064,6584.13,0.568479
3519,17.1895,6646.69,0.570915
3536,17.2725,6671.26,0.574364
3553,17.3555,6714.92,0.578161
3570,17.4385,6701.31,0.578219
3587,17.5215,6757.37,0.582213
3604,17.6045,6793.42,0.585366
3621,17.6875,6832.11,0.588038
3638,17.7705,6871.1,0.59145
3655,17.8535,6888.68,0.592933
3672,17.9365,6924.86,0.596181
3689,18.0195,6950.16,0.597799
3706,18.1025,6980.37,0.599522
3723,18.1855,7029.51,0.604856
3740,18.2686,7029.91,0.606261
3757,18.3516,7101.84,0.611349
3774,18.43457,7108.34,0.611323
3791,18.5176,7152.35,0.613859
3808,18.6006,7190.41,0.6177
3825,18.6836,7186.14,0.6222533
3842,18.7666,7261.68,0.624116
3859,18.8496,7276.47,0.625892
3876,18.9326,7297.25,0.628825
3893,19.0156,7340.14,0.632693
3910,19.0986,7365.65,0.635168
3927,19.1816,7413.5,0.638271
3944,19.2646,7425.66,0.639554
3961,19.3477,7478.21,0.643066
3978,19.4307,7495.61,0.645381
3995,19.5137,7515.05,0.647832
4012,19.59668,7569.34,0.652402
4029,19.6797,7597.9,0.654469
4046,19.7627,7643.37,0.6565659
4063,19.8457,7659.76,0.659084
4080,19.9287,7684.68,0.662435
4097,20.0117,7725.76,0.663667
4114,20.0947,7753.35,0.668348
4131,20.1777,7802.53,0.671888
4148,20.2607,7815.12,0.671424
4165,20.34375,7860.01,0.677194
4182,20.4268,7888.68,0.679822
4199,20.5098,7895.45,0.681598
4216,20.5928,7961.06,0.685578
4233,20.6758,7978.15,0.6866343
4250,20.7588,8019.27,0.68935
4267,20.8418,8017.14,0.690922
4284,20.9248,8065.94,0.695871
4301,21.0078,8109.53,0.697215
4318,21.09082,8136.42,0.700425
4335,21.1738,8177.05,0.705134
4352,21.2568,8190.64,0.704798
4369,21.3398,8239.31,0.708418
4386,21.4229,8256.8,0.709899
4403,21.5059,8277.09,0.715587
4420,21.5889,8332.97,0.719077
4437,21.6719,8354.72,0.719532
4454,21.7549,8399.58,0.7234441
4471,21.8379,8405.99,0.725583
4488,21.9209,8448.6,0.727166
4505,22.0039,8483.87,0.731515
4522,22.0869,8515.17,0.733104
4539,22.1699,8562.4,0.737711
4556,22.25293,8566.22,0.738311
4573,22.3359,8623.7,0.743109
4590,22.4189,8640.61,0.745011
4607,22.502,8656.78,0.749274
4624,22.585,8727.94,0.751487
4641,22.668,8739.19,0.7537396
4658,22.751,8785.11,0.756678
4675,22.834,8797.73,0.75857
4692,22.917,8822.55,0.762092
4709,23.0,8870.93,0.764412
4726,23.083,8891.32,0.767102
4743,23.166,8945.8,0.771198
4760,23.249,8960.73,0.773591
4777,23.332,8982.91,0.774708
4794,23.415,9020.05,0.777051
4811,23.498,9048.4,0.781547
4828,23.5811,9097.39,0.784083
4845,23.6641,9124.75,0.787974
4862,23.74707,9168.15,0.790487
4879,23.8301,9184.64,0.7926755
4896,23.9131,9200.71,0.795038
4913,23.9961,9239.23,0.799642
4930,24.0791,9271.39,0.801039
4947,24.1621,9323.39,0.804355
4964,24.2451,9317.56,0.805238
4981,24.3281,9350.85,0.808142
4998,24.4111,9387.21,0.812115
5015,24.4941,9424.17,0.8158462
5032,24.5771,9466.65,0.818702
5049,24.6602,9494.8,0.820966
5066,24.7432,9508.11,0.822313
5083,24.8262,9544.75,0.825004
5100,24.90918,9564.65,0.828641
5117,24.9922,9620.29,0.830785
5134,25.0752,9648.4,0.833611
5151,25.1582,9687.24,0.837683
5168,25.2412,9695.6,0.839177
5185,25.3242,9716.51,0.842051
5202,25.4072,9768.92,0.8445673
5219,25.4902,9796.67,0.848925
5236,25.5732,9846.31,0.853647
5253,25.65625,9848.67,0.851141
5270,25.7393,9892.47,0.855082
5287,25.8223,9905.87,0.85769
5304,25.9053,9946.71,0.860715
5321,25.9883,9980.56,0.865227
5338,26.0713,10015.2,0.865843
5355,26.1543,10057.6,0.870593
5372,26.2373,10070,0.872251
5389,26.3203,10091.9,0.874283
5406,26.40332,10134.1,0.876858
5423,26.4863,10156.4,0.88063
5440,26.5693,10212.3,0.885086
5457,26.6523,10200,0.884196
5474,26.7354,10252.6,0.887179
5491,26.8184,10287.3,0.890918
5508,26.9014,10312.9,0.894955
5525,26.9844,10369.1,0.898544
5542,27.0674,10386.4,0.900478
5559,27.1504,10435.3,0.903553
5576,27.2334,10448.7,0.905149
5593,27.3164,10462.9,0.908235
5610,27.3994,10510.2,0.912778
5627,27.4824,10531.7,0.913008
5644,27.56543,10587.4,0.918238
5661,27.6484,10607.9,0.91871
5678,27.7314,10615.2,0.921707
5695,27.8145,10675.3,0.925142
5712,27.8975,10692.8,0.926464
5729,27.9805,10748.9,0.930855
5746,28.0635,10777.3,0.932518
5763,28.1465,10796.4,0.936729
5780,28.2295,10833.4,0.938851
5797,28.3125,10830.4,0.941813
5814,28.3955,10902.5,0.94472
5831,28.4785,10918.7,0.946162
5848,28.5615,10958.9,0.949718
5865,28.6445,10963,0.951005
5882,28.7275,10986.5,0.954726
5899,28.8105,11042.8,0.958005
5916,28.8936,11077,0.960187
5933,28.9766,11118.4,0.963602
5950,29.05957,11143.4,0.964994
5967,29.1426,11168.7,0.968428
5984,29.2256,11200.2,0.971101
6001,29.3086,11194.7,0.973379
6018,29.3916,11290.8,0.979156
6035,29.4746,11293,0.980123
6052,29.5576,11330.1,0.983699
6069,29.6406,11369.1,0.986992
6086,29.7236,11378.7,0.988421
6103,29.8066,11423.1,0.991253
6120,29.8896,11448.2,0.993357
6137,29.9727,11492.2,0.99772
6154,30.0557,11503.4,0.9977169
6171,30.1387,11543.4,1.00303
6188,30.22168,11574.6,1.00541
6205,30.3047,11600.8,1.0072
6222,30.3877,11649.6,1.01064
6239,30.4707,11673.2,1.013406
6256,30.5537,11710.8,1.01793
6273,30.6367,11736.9,1.01969
6290,30.7197,11751.8,1.02086
6307,30.8027,11797.5,1.025983
6324,30.8857,11795.3,1.02698
6341,30.96875,11860.6,1.03063
6358,31.0518,11892,1.03254
6375,31.1348,11878.3,1.03642
6392,31.2178,11935,1.03883
6409,31.3008,11967.8,1.04158
6426,31.3838,12018,1.04531
6443,31.4668,12042.6,1.04578
6460,31.5498,12069.1,1.0497
6477,31.6328,12091,1.05348
6494,31.71582,12101.9,1.05398
6511,31.7988,12163.7,1.05794
6528,31.8818,12186.2,1.05965
6545,31.9648,12238.2,1.06273
6562,32.0479,12220.8,1.06333
6579,32.1309,12260.6,1.06808
6596,32.2139,12320.2,1.0715
6613,32.2969,12334.2,1.07531
6630,32.3799,12387.4,1.076978
6647,32.4629,12409.3,1.08148
6664,32.5459,12433.1,1.08276
6681,32.6289,12469.1,1.085444
6698,32.7119,12494.4,1.08775
6715,32.7949,12543.7,1.09253
6732,32.87793,12573.8,1.09419
6749,32.9609,12597.7,1.09626
6766,33.0439,12619.6,1.098922
6783,33.127,12635,1.10186
6800,33.21,12673.8,1.10651
6817,33.293,12700.2,1.1056
6834,33.376,12745.3,1.11043
6851,33.459,12768.5,1.1131
6868,33.542,12798.8,1.11639
6885,33.625,12835.6,1.11871
6902,33.708,12828.5,1.12143
6919,33.791,12900.6,1.12417
6936,33.874,12924.2,1.1262
6953,33.957,12959.3,1.13061
6970,34.04,12984.7,1.13114
6987,34.123,12980.1,1.13572
7004,34.2061,13050.7,1.13864
7021,34.2891,13068.5,1.14155
7038,34.37207,13115,1.14429
7055,34.4551,13150.3,1.14751
7072,34.5381,13149.4,1.14923
7089,34.6211,13200.3,1.15097
7106,34.7041,13226,1.15377
7123,34.7871,13270.1,1.15822
7140,34.8701,13290.7,1.159556
7157,34.9531,13335,1.16434
7174,35.0361,13352.9,1.16565
7191,35.1191,13362.6,1.16847
7208,35.2021,13408.3,1.17063
7225,35.2852,13444.5,1.17331
7242,35.3682,13477.2,1.17827
7259,35.4512,13490.8,1.1775
7276,35.53418,13511.6,1.18204
7293,35.6172,13577.6,1.186025
7310,35.7002,13587.8,1.187
7327,35.7832,13630.6,1.19062
7344,35.8662,13663.1,1.19249
7361,35.9492,13680.9,1.19621
7378,36.0322,13720.8,1.1985
7395,36.1152,13737.1,1.20096
7412,36.1982,13784.3,1.20579
7429,36.28125,13812.9,1.2076
7446,36.3643,13843.8,1.21094
7463,36.4473,13864.2,1.21197
7480,36.5303,13873.5,1.2145
7497,36.6133,13917.4,1.21871
7514,36.6963,13961.9,1.22076
7531,36.7793,14002.7,1.224807
7548,36.8623,14020.4,1.22815
7565,36.9453,14051.7,1.22867
7582,37.02832,14082.7,1.232716
7599,37.1113,14097.2,1.23417
7616,37.1943,14150.3,1.23952
7633,37.2773,14182.8,1.24115
7650,37.3604,14201.8,1.24232
7667,37.4434,14236.4,1.24493
7684,37.5264,14243.3,1.24885
7701,37.6094,14303.1,1.25336
7718,37.6924,14309.1,1.25303
7735,37.7754,14367.6,1.25765
7752,37.8584,14388.5,1.25989
7769,37.9414,14381.5,1.26222
7786,38.0244,14446.1,1.26389
7803,38.1074,14450.7,1.26835
7820,38.19043,14511.7,1.27119
7837,38.2734,14542,1.27377
7854,38.3564,14571.5,1.27557
7871,38.4395,14576.3,1.27857
7888,38.5225,14589.8,1.28123
7905,38.6055,14662.1,1.28464
7922,38.6885,14662.2,1.28632
7939,38.7715,14715.1,1.29011
7956,38.8545,14753.2,1.29295
7973,38.9375,14779.1,1.29571
7990,39.0205,14797.2,1.29691
8007,39.1035,14815,1.30006
8024,39.1865,14873.1,1.30328
8041,39.2695,14894.2,1.30667
8058,39.3525,14930.6,1.31009
8075,39.4355,14947.3,1.31019
8092,39.5186,14975.4,1.31518
8109,39.6016,15028.3,1.31762
8126,39.68457,15060.1,1.31994
8143,39.7676,15080.5,1.32413
8160,39.8506,15104.3,1.32647
8177,39.9336,15119.8,1.32868
8194,40.0166,15164.3,1.33132
8211,40.0996,15179.7,1.33464
8228,40.1826,15241.8,1.33852
8245,40.2656,15276.4,1.34112
8262,40.3486,15303.8,1.34231
8279,40.4316,15321.6,1.34632
8296,40.5146,15350.4,1.34748
8313,40.5977,15398.1,1.35289
8330,40.6807,15423.1,1.353537
8347,40.7637,15457,1.35754
8364,40.84668,15478.1,1.35817
8381,40.9297,15470.4,1.36119
8398,41.0127,15535.8,1.36455
8415,41.0957,15539.9,1.36693
8432,41.1787,15607.1,1.371472
8449,41.2617,15637.4,1.37425
8466,41.3447,15646.2,1.37464
8483,41.4277,15671.6,1.37658
8500,41.5107,15691.4,1.3816
8517,41.59375,15743,1.38456
8534,41.6768,15783.4,1.38659
8551,41.7598,15797.7,1.38897
8568,41.8428,15841.5,1.39227
8585,41.9258,15829.1,1.39445
8602,42.0088,15894.5,1.39831
8619,42.0918,15931.6,1.40086
8636,42.1748,15956.3,1.40421
8653,42.2578,16003.6,1.40714
8670,42.34082,15997.5,1.40821
8687,42.4238,16053.2,1.4111
8704,42.5068,16060.3,1.41476
8721,42.5898,16120.4,1.41795
8738,42.6729,16150.5,1.42145
8755,42.7559,16185,1.4245
8772,42.8389,16202,1.425861
8789,42.9219,16216.8,1.4285
8806,43.0049,16274.9,1.43348
8823,43.0879,16298.1,1.43487
8840,43.1709,16324.7,1.43795
8857,43.2539,16364.2,1.44123
8874,43.3369,16360.4,1.44125
8891,43.4199,16406.5,1.44469
8908,43.50293,16417.5,1.44702
8925,43.5859,16482.2,1.45302
8942,43.6689,16516.3,1.45479
8959,43.752,16533.8,1.45642
8976,43.835,16562.4,1.4598
8993,43.918,16587.1,1.46108
9010,44.001,16632.3,1.46566
9027,44.084,16666.8,1.46818
9044,44.167,16686,1.47083
9061,44.25,16730.8,1.47402
9078,44.333,16715.8,1.47553
9095,44.416,16777.3,1.478097
9112,44.499,16808.8,1.48202
9129,44.582,16847.8,1.48437
9146,44.665,16875.1,1.48836
9163,44.748,16881.7,1.48918
9180,44.8311,16918.5,1.49145
9197,44.9141,16951,1.494218
9214,44.99707,16987.2,1.4987
9231,45.0801,17013.2,1.5009
9248,45.1631,17044.7,1.503
9265,45.2461,17084.4,1.50766
9282,45.3291,17059.2,1.50846
9299,45.4121,17140,1.51234
9316,45.4951,17166.2,1.51371
9333,45.5781,17186.4,1.51631
9350,45.6611,17221.9,1.51955
9367,45.7441,17227.1,1.52096
9384,45.8271,17279.5,1.52639
9401,45.9102,17300.6,1.52624
9418,45.9932,17344.2,1.53121
9435,46.0762,17371.7,1.53433
9452,46.15918,17396.5,1.53685
9469,46.2422,17431.7,1.54057
9486,46.3252,17435.6,1.54106
9503,46.4082,17491,1.54537
9520,46.4912,17525.9,1.5474
9537,46.5742,17555.8,1.55117
9554,46.6572,17584,1.55379
9571,46.7402,17559.9,1.55497
9588,46.8232,17625.2,1.55762
9605,46.90625,17643.2,1.56136
9622,46.9893,17692.8,1.56452
9639,47.0723,17726.3,1.56739
9656,47.1553,17724.9,1.56963
9673,47.2383,17791.9,1.57267
9690,47.3213,17793.6,1.5739
9707,47.4043,17834.4,1.57863
9724,47.4873,17870.6,1.58193
9741,47.5703,17909.1,1.583
9758,47.65332,17936.5,1.58468
9775,47.7363,17942.3,1.58849
9792,47.8193,17993.8,1.59109
9809,47.9023,18021.7,1.59503
9826,47.9854,18054.7,1.59826
9843,48.0684,18091.1,1.60026
9860,48.1514,18103.6,1.60295
9877,48.2344,18149.2,1.605273
9894,48.3174,18159.3,1.60705
9911,48.4004,18215.4,1.61216
9928,48.4834,18241.1,1.61429
9945,48.5664,18262.1,1.61672
9962,48.6494,18305.2,1.62034
9979,48.7324,18298.5,1.62144
9996,48.81543,18339.1,1.62537
10013,48.8984,18380.3,1.627876
10030,48.9814,18409,1.63098
10047,49.0645,18450,1.63558
10064,49.1475,18447.1,1.63524
10081,49.2305,18501.4,1.63846
10098,49.3135,18512.8,1.64042
10115,49.3965,18561.4,1.6444
10132,49.4795,18600.4,1.64779
10149,49.5625,18620.4,1.65116
10166,49.6455,18656.2,1.65228
10183,49.7285,18651,1.65421
10200,49.8115,18710.5,1.65949
10217,49.8945,18752.2,1.66289
10234,49.9775,18764.1,1.66337
10251,50.0605,18804.5,1.66614
10268,50.1436,18786.8,1.668439
10285,50.2266,18853.8,1.672811
10302,50.30957,18880,1.67427
10319,50.3926,18908.9,1.67817
10336,50.4756,18953.8,1.6807
10353,50.5586,18976.2,1.68265
10370,50.6416,19018.5,1.68598
10387,50.7246,19001.4,1.68864
10404,50.8076,19051.1,1.69305
10421,50.8906,19096.8,1.69458
10438,50.9736,19113.1,1.69721
10455,51.0566,19156,1.70059
10472,51.1396,19167.1,1.70245
10489,51.2227,19214.1,1.70578
10506,51.3057,19238.3,1.70739
10523,51.3887,19272.7,1.71042
10540,51.47168,19314,1.71493
10557,51.5547,19331.1,1.71568
10574,51.6377,19357.6,1.71866
10591,51.7207,19356.5,1.7216
10608,51.8037,19400.2,1.72577
10625,51.8867,19442.3,1.72723
10642,51.9697,19467.3,1.73068
10659,52.0527,19503.7,1.734652
10676,52.1357,19494.2,1.73499
10693,52.21875,19562.1,1.73958
10710,52.3018,19586.3,1.74065
10727,52.3848,19588.9,1.74535
10744,52.4678,19647.7,1.74705
10761,52.5508,19640.4,1.74884
10778,52.6338,19703.7,1.75208
10795,52.7168,19716.5,1.75433
10812,52.7998,19748.1,1.75932
10829,52.8828,19798.6,1.7613
10846,52.9658,19821.1,1.76311
10863,53.0488,19859.4,1.76725
10880,53.1318,19852,1.7682
10897,53.2148,19913.6,1.771798
10914,53.2979,19944.2,1.77353
10931,53.3809,19964.8,1.77715
10948,53.4639,20005.5,1.78135
10965,53.5469,20021.2,1.78101
10982,53.6299,20063.7,1.78461
10999,53.7129,20077.5,1.78667
11016,53.7959,20115,1.79117
11033,53.8789,20147.7,1.79357
11050,53.9619,20159.4,1.79556
11067,54.0449,20207.9,1.79891
11084,54.1279,20184.9,1.8005
11101,54.2109,20266.9,1.80557
11118,54.2939,20296.9,1.80756
11135,54.377,20315.1,1.81056
11152,54.46,20360,1.81447
11169,54.543,20325.9,1.81473
11186,54.626,20401.3,1.81889
11203,54.709,20445.5,1.820945
11220,54.792,20471.4,1.82459
11237,54.875,20518.8,1.82821
11254,54.958,20528.2,1.82971
11271,55.041,20568.3,1.83463
11288,55.124,20572.5,1.83398
11305,55.207,20608.6,1.838627
11322,55.29,20647.3,1.84043
11339,55.373,20671.5,1.84535
11356,55.4561,20712.1,1.84678
11373,55.5391,20698.4,1.84753
11390,55.6221,20760.1,1.85141
11407,55.7051,20782.8,1.85449
11424,55.7881,20814,1.85729
11441,55.8711,20852.7,1.86118
11458,55.9541,20843.4,1.86174
11475,56.0371,20907.8,1.86616
11492,56.1201,20926.9,1.86788
11509,56.2031,20948.4,1.87118
11526,56.2861,20995.5,1.87363
11543,56.3691,21014.8,1.877005
11560,56.4521,21056,1.87987
11577,56.5352,21073.7,1.88185
11594,56.6182,21097.4,1.88531
11611,56.7012,21138.1,1.88755
11628,56.7842,21161.8,1.89013
11645,56.8672,21209.1,1.89473
11662,56.9502,21195.2,1.89472
11679,57.0332,21248.3,1.89774
11696,57.1162,21272.6,1.9004
11713,57.1992,21318.6,1.904924
11730,57.2822,21346.6,1.90795
11747,57.3652,21363.6,1.90949
11764,57.4482,21409.1,1.91307
11781,57.53125,21420.7,1.91325
11798,57.6143,21447.1,1.91872
11815,57.6973,21486.3,1.92088
11832,57.7803,21509.1,1.92153
11849,57.8633,21552.8,1.92635
11866,57.9463,21558.9,1.92937
11883,58.0293,21606.4,1.9331
11900,58.1123,21629.6,1.93495
11917,58.1953,21670.1,1.93715
11934,58.2783,21704.3,1.94155
11951,58.3613,21704.1,1.94213
11968,58.4443,21755.9,1.94609
11985,58.5273,21767.3,1.94773
12002,58.6104,21798.4,1.95095
12019,58.6934,21844.4,1.95412
12036,58.7764,21855.1,1.95608
12053,58.8594,21903.5,1.95982
12070,58.9424,21914.1,1.96192
12087,59.0254,21948.5,1.96589
12104,59.1084,21983,1.968277
12121,59.1914,22010.1,1.96946
12138,59.2744,22036.7,1.97402
12155,59.3574,22049.5,1.975273
12172,59.4404,22100.8,1.97892
12189,59.5234,22115.3,1.98075
12206,59.6064,22135.6,1.98515
12223,59.6895,22189.7,1.98666
12240,59.7725,22213.7,1.98994
12257,59.8555,22255.4,1.9943
12274,59.9385,22268.3,1.99511
12291,60.0215,22263.5,1.99828
12308,60.1045,22332.4,2.00062
12325,60.1875,22366.6,2.00358
12342,60.2705,22394.6,2.0071
12359,60.3535,22414.4,2.00911
12376,60.4365,22437.7,2.0127
12393,60.5195,22468.8,2.01493
12410,60.6025,22499.5,2.01657
12427,60.6855,22547.1,2.02265
12444,60.7686,22558.9,2.02463
12461,60.8516,22600.8,2.02776
12478,60.9346,22611.6,2.02768
12495,61.0176,22633.7,2.03309
12512,61.1006,22678,2.03476
12529,61.1836,22697.4,2.03861
12546,61.2666,22743,2.04109
12563,61.3496,22729.2,2.04072
12580,61.4326,22786.1,2.04549
12597,61.5156,22809.1,2.04755
12614,61.5986,22836.9,2.05039
12631,61.6816,22879.1,2.05544
12648,61.7646,22904.9,2.0576
12665,61.8477,22948.7,2.06038
12682,61.9307,22940.4,2.06005
12699,62.0137,22966.7,2.0649
12716,62.0967,23011.9,2.06818
12733,62.1797,23052.2,2.0719
12750,62.2627,23088.2,2.07384
12767,62.3457,23097,2.07464
12784,62.4287,23119.9,2.0793
12801,62.5117,23162.3,2.08192
12818,62.5947,23202.2,2.08507
12835,62.6777,23232.2,2.08732
12852,62.7607,23253.7,2.09166
12869,62.84375,23301.9,2.094027
12886,62.9268,23308.8,2.09559
12903,63.0098,23336.6,2.09958
12920,63.0928,23381.3,2.10434
12937,63.1758,23416.4,2.10601
12954,63.2588,23449,2.1082
12971,63.3418,23419.9,2.1089
12988,63.4248,23486.9,2.11247
13005,63.5078,23527.9,2.11649
13022,63.5908,23548.5,2.11927
13039,63.6738,23594.4,2.12305
13056,63.7568,23592.2,2.12359
13073,63.8398,23644,2.126092
13090,63.9229,23663.6,2.12993
13107,64.0059,23689.8,2.13205
13124,64.0889,23731.3,2.13566
13141,64.1719,23747.2,2.13782
13158,64.2549,23790.4,2.14149
13175,64.3379,23789.9,2.144489
13192,64.4209,23829.6,2.14559
13209,64.5039,23869.8,2.14879
13226,64.5869,23869.5,2.15054
13243,64.6699,23928.4,2.156636
13260,64.75293,23923.9,2.15463
13277,64.8359,23968.9,2.15985
13294,64.9189,23985.8,2.16219
13311,65.002,24012.9,2.16535
13328,65.085,24065.7,2.16857
13345,65.168,24078.9,2.16994
13362,65.251,24120,2.17413
13379,65.334,24144.2,2.17588
13396,65.417,24122.4,2.17956
13413,65.5,24198.5,2.18194
13430,65.583,24201.2,2.18344
13447,65.666,24254.9,2.18765
13464,65.749,24249.3,2.18793
13481,65.832,24296.6,2.192997
13498,65.915,24334.6,2.19492
13515,65.998,24369.4,2.19935
13532,66.0811,24389.7,2.20108
13549,66.1641,24387.8,2.20457
13566,66.24707,24454.8,2.20637
13583,66.3301,24471.1,2.20881
13600,66.4131,24455.7,2.21121
13617,66.4961,24534.4,2.2149
13634,66.5791,24568.4,2.21702
13651,66.6621,24599.1,2.22113
13668,66.7451,24610.6,2.22346
13685,66.8281,24636.4,2.22526
13702,66.9111,24676.1,2.22922
13719,66.9941,24702.7,2.23151
13736,67.0771,24740.8,2.23546
13753,67.1602,24745.4,2.23631
13770,67.2432,24784.8,2.2397
13787,67.3262,24812.4,2.24134
13804,67.40918,24837.9,2.24498
13821,67.4922,24875.7,2.24797
13838,67.5752,24890.2,2.24972
13855,67.6582,24930.7,2.25308
13872,67.7412,24931.3,2.25443
13889,67.8242,24980.3,2.25807
13906,67.9072,25003.3,2.26108
13923,67.9902,25037.1,2.26418
13940,68.0732,25076,2.26655
13957,68.15625,25075,2.26901
13974,68.2393,25122.8,2.27072
13991,68.3223,25142.6,2.27448
14008,68.4053,25174.9,2.27825
14025,68.4883,25209.7,2.28056
14042,68.5713,25234.5,2.28206
14059,68.6543,25266.2,2.28793
14076,68.7373,25300.9,2.28975
14093,68.8203,25325,2.29146
14110,68.90332,25344.1,2.29442
14127,68.9863,25376.6,2.29708
14144,69.0693,25410,2.30119
14161,69.1523,25436.5,2.30309
14178,69.2354,25443.1,2.30436
14195,69.3184,25492.4,2.30718
14212,69.4014,25519.8,2.3111
14229,69.4844,25557,2.31591
14246,69.5674,25568.8,2.3164
14263,69.6504,25596.9,2.3203
14280,69.7334,25627.2,2.32136
14297,69.8164,25622.5,2.3251
14314,69.8994,25691.9,2.3276
14331,69.9824,25714.7,2.33091
14348,70.06543,25749.1,2.33501
14365,70.1484,25736.3,2.33361
14382,70.2314,25791.6,2.33821
14399,70.3145,25802,2.34078
14416,70.3975,25846.9,2.34462
14433,70.4805,25885.7,2.34827
14450,70.5635,25911.6,2.34938
14467,70.6465,25944,2.35152
14484,70.7295,25965.3,2.35524
14501,70.8125,25978.2,2.35858
14518,70.8955,26031.1,2.36183
14535,70.9785,26051.8,2.36222
14552,71.0615,26082.8,2.36769
14569,71.1445,26081,2.36826
14586,71.2275,26119.9,2.37246
14603,71.3105,26143.1,2.37533
14620,71.3936,26159.6,2.37663
14637,71.4766,26213.4,2.38092
14654,71.55957,26256.7,2.38263
14671,71.6426,26257.4,2.38624
14688,71.7256,26292.3,2.38829
14705,71.8086,26319,2.39048
14722,71.8916,26356,2.39455
14739,71.9746,26377.6,2.398068
14756,72.0576,26419.3,2.3994
14773,72.1406,26416.4,2.40105
14790,72.2236,26450.4,2.40491
14807,72.3066,26488.8,2.40816
14824,72.3896,26493.9,2.409133
14841,72.4727,26560.1,2.41364
14858,72.5557,26578.5,2.41842
14875,72.6387,26587.8,2.41868
14892,72.72168,26633.5,2.42212
14909,72.8047,26632.1,2.4257
14926,72.8877,26687.2,2.42733
14943,72.9707,26695.9,2.429296
14960,73.0537,26743.6,2.43212
14977,73.1367,26747.1,2.43389
14994,73.2197,26776.7,2.43706
15011,73.3027,26823.8,2.44139
15028,73.3857,26848.2,2.44395
15045,73.46875,26885,2.446893
15062,73.5518,26907.7,2.44854
15079,73.6348,26931.1,2.452193
15096,73.7178,26960.1,2.45539
15113,73.8008,26978.9,2.45713
15130,73.8838,27026.5,2.46054
15147,73.9668,27047.7,2.46386
15164,74.0498,27070.4,2.46668
15181,74.1328,27107.6,2.46816
15198,74.21582,27113.3,2.4704
15215,74.2988,27158.9,2.47479
15232,74.3818,27184,2.47568
15249,74.4648,27225.9,2.481102
15266,74.5479,27241.6,2.48128
15283,74.6309,27257,2.48588
15300,74.7139,27297.8,2.48833
15317,74.7969,27310.7,2.49074
15334,74.8799,27352.4,2.49364
15351,74.9629,27382.2,2.49662
15368,75.0459,27408.2,2.49993
15385,75.1289,27433.1,2.50242
15402,75.2119,27436.7,2.50492
15419,75.2949,27483.4,2.50879
15436,75.37793,27504,2.50987
15453,75.4609,27549.2,2.51382
15470,75.5439,27570.8,2.51409
15487,75.627,27579.5,2.51803
15504,75.71,27632.7,2.52231
15521,75.793,27655.1,2.52427
15538,75.876,27695.6,2.52742
15555,75.959,27718.7,2.52988
15572,76.042,27738.8,2.53241
15589,76.125,27760.4,2.53522
15606,76.208,27773.3,2.53877
15623,76.291,27820.1,2.53997
15640,76.374,27840.2,2.54332
15657,76.457,27873.6,2.54566
15674,76.54,27888.6,2.54799
15691,76.623,27911.7,2.55141
15708,76.7061,27959.8,2.55392
15725,76.7891,27987.9,2.55799
15742,76.87207,28015.2,2.55998
15759,76.9551,28038.2,2.56249
15776,77.0381,28062.9,2.56511
15793,77.1211,28073.4,2.56942
15810,77.2041,28115.8,2.57049
15827,77.2871,28160.1,2.57486
15844,77.3701,28180.8,2.57765
15861,77.4531,28204.8,2.579159
15878,77.5361,28230.6,2.58184
15895,77.6191,28255.9,2.58476
15912,77.7021,28295.5,2.58878
15929,77.7852,28311.4,2.59026
15946,77.8682,28337.9,2.59272
15963,77.9512,28369.4,2.59477
15980,78.03418,28381.1,2.599617
15997,78.1172,28414.8,2.60142
16014,78.2002,28438.3,2.60409
16031,78.2832,28476.2,2.60702
16048,78.3662,28507.4,2.60973
16065,78.4492,28526.8,2.612566
16082,78.5322,28559.2,2.61469
16099,78.6152,28569.2,2.61568
16116,78.6982,28612.4,2.62058
16133,78.78125,28652.6,2.62369
16150,78.8643,28675.9,2.62695
16167,78.9473,28695.3,2.629302
16184,79.0303,28717.4,2.63194
16201,79.1133,28754.5,2.63613
16218,79.1963,28764.9,2.63646
16235,79.2793,28807.6,2.63988
16252,79.3623,28838.5,2.64382
16269,79.4453,28853.4,2.64518
16286,79.52832,28878.7,2.6485
16303,79.6113,28896.7,2.65053
16320,79.6943,28946.9,2.65546
16337,79.7773,28973,2.65673
16354,79.8604,29000.6,2.65943
16371,79.9434,29015.2,2.66137
16388,80.0264,29035.3,2.663
16405,80.1094,29081.3,2.6701
16422,80.1924,29103,2.67059
16439,80.2754,29130.4,2.67372
16456,80.3584,29161.8,2.67595
16473,80.4414,29189.8,2.67895
16490,80.5244,29212.7,2.6812
16507,80.6074,29225.3,2.68363
16524,80.69043,29279.5,2.68678
16541,80.7734,29298.9,2.68974
16558,80.8564,29328.5,2.69175
16575,80.9395,29343.8,2.69566
16592,81.0225,29354.1,2.697803
16609,81.1055,29403.8,2.70113
16626,81.1885,29425.9,2.70456
16643,81.2715,29452.7,2.70684
16660,81.3545,29491.6,2.71022
16677,81.4375,29500.5,2.71127
16694,81.5205,29549.2,2.71374
16711,81.6035,29547.2,2.71841
16728,81.6865,29603.5,2.72162
16745,81.7695,29623.2,2.72271
16762,81.8525,29637.5,2.72545
16779,81.9355,29679.1,2.72925
16796,82.0186,29681.9,2.73119
16813,82.1016,29738.1,2.73556
16830,82.18457,29758.3,2.73612
16847,82.2676,29776.3,2.74003
16864,82.3506,29811,2.74263
16881,82.4336,29801.8,2.74488
16898,82.5166,29869.1,2.74848
16915,82.5996,29875.2,2.75073
16932,82.6826,29924.1,2.75512
16949,82.7656,29947.2,2.75649
16966,82.8486,29965.8,2.75945
16983,82.9316,29998.8,2.76247
17000,83.0146,29988.3,2.76392
17017,83.0977,30059.1,2.76928
17034,83.1807,30085,2.77044
17051,83.2637,30097.1,2.77345
17068,83.34668,30130.5,2.77724
17085,83.4297,30128,2.77801
17102,83.5127,30182.5,2.78077
17119,83.5957,30212.2,2.784584
17136,83.6787,30248.8,2.78635
17153,83.7617,30274.4,2.79019
17170,83.8447,30292.5,2.79101
17187,83.9277,30317.7,2.79529
17204,84.0107,30323,2.79722
17221,84.09375,30383.8,2.8008
17238,84.1768,30400,2.8034
17255,84.2598,30427.5,2.804882
17272,84.3428,30457.7,2.80923
17289,84.4258,30450.1,2.80972
17306,84.5088,30505.5,2.81357
17323,84.5918,30536.4,2.81832
17340,84.6748,30560.2,2.82108
17357,84.7578,30596.7,2.8215
17374,84.84082,30614.3,2.82609
17391,84.9238,30640.1,2.82825
17408,85.0068,30656.7,2.83148
17425,85.0898,30689.3,2.83392
17442,85.1729,30723.8,2.83711
17459,85.2559,30751.6,2.83958
17476,85.3389,30780.4,2.84233
17493,85.4219,30780,2.84409
17510,85.5049,30833.4,2.84871
17527,85.5879,30865.5,2.85069
17544,85.6709,30873.9,2.85341
17561,85.7539,30908.8,2.85631
17578,85.8369,30928.8,2.8579
17595,85.9199,30954.5,2.8613
17612,86.00293,30988.9,2.86417
17629,86.0859,31014.8,2.86699
17646,86.1689,31033.4,2.86859
17663,86.252,31062.2,2.87227
17680,86.335,31077.4,2.87478
17697,86.418,31107.7,2.87745
17714,86.501,31152.2,2.8822
17731,86.584,31167,2.88468
17748,86.667,31191.8,2.88644
17765,86.75,31226,2.88914
17782,86.833,31237.2,2.89107
17799,86.916,31280.1,2.89564
17816,86.999,31304.2,2.89838
17833,87.082,31342.2,2.900847
17850,87.165,31365.1,2.90292
17867,87.248,31374.8,2.90687
17884,87.3311,31407.8,2.90788
17901,87.4141,31427.2,2.911238
17918,87.49707,31473.7,2.91481
17935,87.5801,31497.7,2.9176
17952,87.6631,31515.3,2.9205
17969,87.7461,31549.5,2.92259
17986,87.8291,31555.8,2.92383
18003,87.9121,31590.4,2.92752
18020,87.9951,31617.7,2.93061
18037,88.0781,31649.2,2.93436
18054,88.1611,31674.3,2.93628
18071,88.2441,31696,2.93577
18088,88.3271,31718.7,2.94208
18105,88.4102,31744.7,2.944499
18122,88.4932,31785.8,2.94853
18139,88.5762,31815.3,2.95197
18156,88.65918,31836.3,2.95311
18173,88.7422,31875,2.955971
18190,88.8252,31859.4,2.95799
18207,88.9082,31913,2.96153
18224,88.9912,31941.6,2.96467
18241,89.0742,31974.9,2.96729
18258,89.1572,32000.8,2.96976
18275,89.2402,32013.3,2.97198
18292,89.3232,32036.9,2.97516
18309,89.40625,32070.9,2.97728
18326,89.4893,32109.6,2.98137
18343,89.5723,32132.8,2.98374
18360,89.6553,32142.9,2.98619
18377,89.7383,32184.6,2.98877
18394,89.8213,32199.5,2.99148
18411,89.9043,32235.9,2.99635
18428,89.9873,32258.7,2.99696
18445,90.0703,32279.1,3.00027
18462,90.15332,32325.5,3.00438
18479,90.2363,32331.3,3.00395
18496,90.3193,32369.1,3.00823
18513,90.4023,32386.7,3.01132
18530,90.4854,32414,3.01472
18547,90.5684,32448.7,3.01784
18564,90.6514,32469.5,3.01995
18581,90.7344,32504.2,3.02309
18598,90.8174,32517.6,3.02466
18615,90.9004,32539.8,3.0296
18632,90.9834,32581.7,3.03001
18649,91.0664,32604.5,3.03383
18666,91.1494,32634,3.0366
18683,91.2324,32648,3.03684
18700,91.31543,32668.7,3.04229
18717,91.3984,32693.9,3.04465
18734,91.4814,32732.4,3.046432
18751,91.5645,32761.9,3.05043
18768,91.6475,32777,3.05314
18785,91.7305,32805.6,3.05619
18802,91.8135,32838.8,3.05694
18819,91.8965,32859.7,3.06144
18836,91.9795,32896,3.06521
18853,92.0625,32913.2,3.06615
18870,92.1455,32948,3.06819
18887,92.2285,32931.2,3.07051
18904,92.3115,32988.6,3.07516
18921,92.3945,33019.2,3.07758
18938,92.4775,33035.3,3.07961
18955,92.5605,33084.3,3.0842
18972,92.6436,33095.5,3.08567
18989,92.7266,33132.5,3.08817
19006,92.80957,33144.4,3.09013
19023,92.8926,33172.2,3.094702
19040,92.9756,33214.5,3.09786
19057,93.0586,33215.9,3.10078
19074,93.1416,33268.6,3.10289
19091,93.2246,33246.1,3.10367
19108,93.3076,33315.4,3.108779
19125,93.3906,33339.8,3.11178
19142,93.4736,33355.3,3.11417
19159,93.5566,33385.5,3.11683
19176,93.6396,33402.5,3.11915
19193,93.7227,33448.9,3.122005
19210,93.8057,33467.8,3.12379
19227,93.8887,33494.4,3.12721
19244,93.97168,33535.3,3.13122
19261,94.0547,33540.3,3.13248
19278,94.1377,33588,3.13549
19295,94.2207,33584.4,3.13724
19312,94.3037,33636.2,3.14096
19329,94.3867,33651.4,3.1443
19346,94.4697,33668.5,3.14593
19363,94.5527,33701.2,3.14948
19380,94.6357,33721.3,3.15146
19397,94.71875,33740.3,3.15442
19414,94.8018,33774.1,3.15483
19431,94.8848,33811.3,3.16136
19448,94.9678,33827.2,3.1632
19465,95.0508,33836.6,3.16516
19482,95.1338,33888.1,3.1688
19499,95.2168,33898,3.169404
19516,95.2998,33941.4,3.17553
19533,95.3828,33962.9,3.17768
19550,95.46582,33985.3,3.17972
19567,95.5488,34014.1,3.183805
19584,95.6318,34022.6,3.18485
19601,95.7148,34051.6,3.18906
19618,95.7979,34100.7,3.19084
19635,95.8809,34118.9,3.1938
19652,95.9639,34161.8,3.197166
19669,96.0469,34158.5,3.199158
19686,96.1299,34199.5,3.20179
19703,96.2129,34216.1,3.20391
19720,96.2959,34250.1,3.20693
19737,96.3789,34272.9,3.20945
19754,96.4619,34292.3,3.2131
19771,96.5449,34328,3.21672
19788,96.62793,34336.3,3.21834
19805,96.7109,34371.9,3.22264
19822,96.7939,34404.8,3.22411
19839,96.877,34424.4,3.22754
19856,96.96,34455.7,3.23066
19873,97.043,34458.1,3.23234
19890,97.126,34508.2,3.23543
19907,97.209,34530.6,3.23804
19924,97.292,34552.3,3.24137
19941,97.375,34588.4,3.24359
19958,97.458,34607.5,3.24472
19975,97.541,34634.2,3.24914
19992,97.624,34638.5,3.25133
20009,97.707,34680.5,3.25428
20026,97.79,34699.6,3.25731
20043,97.873,34729.2,3.25949
20060,97.9561,34761.1,3.26352
20077,98.0391,34762.6,3.26371
20094,98.12207,34804.3,3.26731
20111,98.2051,34831.4,3.27084
20128,98.2881,34852,3.27377
20145,98.3711,34897.1,3.27559
20162,98.4541,34904.6,3.27754
20179,98.5371,34944.3,3.28249
20196,98.6201,34952.4,3.28372
20213,98.7031,34988.8,3.28772
20230,98.7861,35018.3,3.28966
20247,98.8691,35034.3,3.2934
20264,98.9521,35074.1,3.29529
20281,99.0352,35087.8,3.29769
20298,99.1182,35115,3.30059
20315,99.2012,35147.7,3.30445
20332,99.28418,35163.7,3.30651
20349,99.3672,35202.5,3.31
20366,99.4502,35221.1,3.31297
20383,99.5332,35232.5,3.31574
20400,99.6162,35261,3.31726
20417,99.6992,35291.4,3.32012
20434,99.7822,35317.9,3.32302
20451,99.8652,35345.9,3.32509
20468,99.9482,35376.9,3.32904
20485,100.031,35375.6,3.331
20502,100.114,35412.6,3.33413
20519,100.197,35445.1,3.33746
20536,100.28,35470.5,3.33991
20553,100.363,35502.9,3.34264
20570,100.446,35507.5,3.34344
20587,100.5293,35535.3,3.34611
20604,100.6123,35569.3,3.35217
20621,100.695,35602.7,3.354346
20638,100.778,35633,3.35689
20655,100.861,35648.9,3.35855
20672,100.944,35675.4,3.36049
20689,101.027,35697.1,3.36507
20706,101.11,35725.5,3.36757
20723,101.193,35762.5,3.37023
20740,101.276,35783.2,3.37319
20757,101.359,35811.4,3.37657
20774,101.442,35832.9,3.37922
20791,101.525,35851.9,3.38006
20808,101.6084,35871.7,3.38498
20825,101.691,35906.4,3.38684
20842,101.774,35926.3,3.38796
20859,101.857,35950.3,3.391381
20876,101.94,35982.4,3.39533
20893,102.023,35990,3.39716
20910,102.106,36037.6,3.40017
20927,102.189,36058.8,3.40352
20944,102.272,36082.4,3.40752
20961,102.355,36112.9,3.40973
20978,102.438,36114,3.41179
20995,102.521,36146.1,3.41581
21012,102.604,36174.6,3.4192
21029,102.6875,36205.4,3.41978
21046,102.771,36245.3,3.4233
21063,102.854,36219,3.42489
21080,102.937,36275.2,3.42953
21097,103.02,36305.5,3.43187
21114,103.103,36341.4,3.43455
21131,103.186,36367.3,3.43769
21148,103.269,36386.3,3.43968
21165,103.352,36414.4,3.44398
21182,103.435,36430.2,3.44321
21199,103.518,36441.4,3.4482
21216,103.601,36480.2,3.4512
21233,103.684,36512.6,3.45403
21250,103.7666,36540.8,3.45649
21267,103.85,36552.3,3.45843
21284,103.933,36580.2,3.46086
21301,104.016,36599.9,3.46402
21318,104.099,36633,3.46701
21335,104.182,36666.2,3.469327
21352,104.265,36677,3.47227
21369,104.348,36712.2,3.4754
21386,104.431,36730.6,3.47693
21403,104.514,36742.1,3.48034
21420,104.597,36785.9,3.48453
21437,104.68,36806.9,3.48752
21454,104.7627,36845.5,3.48978
21471,104.8457,36843.4,3.49096
21488,104.929,36887,3.49507
21505,105.012,36908.3,3.49675
21522,105.095,36933.2,3.50099
21539,105.178,36969.5,3.50395
21556,105.261,36975.9,3.5055
21573,105.344,37019,3.5096
21590,105.427,37031.9,3.511
21607,105.51,37053.8,3.51402
21624,105.593,37085.8,3.51702
21641,105.676,37107.8,3.51985
21658,105.759,37142.3,3.52332
21675,105.8418,37150.8,3.52425
21692,105.9248,37182.1,3.52884
21709,106.008,37220.8,3.53
21726,106.091,37239.3,3.53388
21743,106.174,37268,3.53562
21760,106.257,37284.6,3.53873
21777,106.34,37319,3.5427
21794,106.423,37335.2,3.54547
21811,106.506,37363.9,3.54786
21828,106.589,37391.3,3.55047
21845,106.672,37412.7,3.55381
21862,106.755,37450.5,3.55494
21879,106.838,37464.8,3.55822
21896,106.9209,37484.6,3.56126
21913,107.004,37508.3,3.56466
21930,107.087,37534.2,3.5658
21947,107.17,37573,3.56963
21964,107.253,37582.2,3.57164
21981,107.336,37610.8,3.57454
21998,107.419,37632.8,3.57705
22015,107.502,37653.3,3.579885
22032,107.585,37693.8,3.58408
22049,107.668,37706.3,3.58573
22066,107.751,37743.1,3.58953
22083,107.834,37757.9,3.5901
22100,107.917,37790.7,3.59422
22117,108.0,37813.2,3.59756
22134,108.083,37834.4,3.59957
22151,108.166,37870.3,3.60243
22168,108.249,37881.4,3.60487
22185,108.332,37905.8,3.60848
22202,108.415,37930.7,3.610733
22219,108.498,37950.6,3.61309
22236,108.581,37990.1,3.6174
22253,108.664,38000.6,3.618818
22270,108.747,38033.6,3.620717
22287,108.83,38050.1,3.62381
22304,108.913,38071.8,3.62687
22321,108.996,38107.2,3.63047
22338,109.0791,38124.5,3.63267
22355,109.162,38150.8,3.63526
22372,109.245,38183.5,3.63874
22389,109.328,38198.3,3.64019
22406,109.411,38230.2,3.64481
22423,109.494,38244.5,3.64752
22440,109.577,38276.8,3.6495
22457,109.66,38291.6,3.65122
22474,109.743,38328.1,3.65532
22491,109.826,38345.7,3.6577
22508,109.909,38359.8,3.66124
22525,109.992,38397.9,3.66345
22542,110.0752,38408.7,3.6667
22559,110.1582,38433.4,3.67103
22576,110.241,38448.6,3.671299
22593,110.324,38484.1,3.67545
22610,110.407,38513.9,3.67658
22627,110.49,38532.9,3.680305
22644,110.573,38562.1,3.68374
22661,110.656,38577.7,3.6852
22678,110.739,38607.3,3.689657
22695,110.822,38624.2,3.69044
22712,110.905,38654.2,3.69386
22729,110.988,38686.4,3.69746
22746,111.071,38699.7,3.69991
22763,111.1543,38727.7,3.7028
22780,111.2373,38730.5,3.705229
22797,111.32,38763.6,3.70881
22814,111.403,38805,3.710125
22831,111.486,38830.2,3.71273
22848,111.569,38857.7,3.71614
22865,111.652,38885.4,3.71952
22882,111.735,38885.5,3.72207
22899,111.818,38917.1,3.72349
22916,111.901,38939.3,3.72747
22933,111.984,38977.3,3.73111
22950,112.067,38992.1,3.73275
22967,112.15,39017.9,3.73646
22984,112.2334,39031.4,3.73897
23001,112.316,39053.8,3.74229
23018,112.399,39073.3,3.74323
23035,112.482,39111.1,3.74659
23052,112.565,39138.2,3.74945
23069,112.648,39158.9,3.75301
23086,112.731,39179.8,3.75566
23103,112.814,39202.6,3.75852
23120,112.897,39223.5,3.75904
23137,112.98,39247.7,3.76419
23154,113.063,39279.2,3.76574
23171,113.146,39306,3.7689
23188,113.229,39323.2,3.77082
23205,113.3125,39338.5,3.77437
23222,113.396,39368.6,3.77578
23239,113.479,39395.8,3.77947
23256,113.562,39428.9,3.78236
23273,113.645,39443.2,3.78527
23290,113.728,39463.5,3.78833
23307,113.811,39486,3.79044
23324,113.894,39503.4,3.7937
23341,113.977,39540.4,3.79566
23358,114.06,39556.5,3.79833
23375,114.143,39585.4,3.8022
23392,114.226,39603.8,3.80366
23409,114.309,39623.7,3.80664
23426,114.3916,39659.2,3.81045
23443,114.475,39681.6,3.81331
23460,114.558,39705.8,3.81651
23477,114.641,39737.9,3.81862
23494,114.724,39743.6,3.82009
23511,114.807,39781.6,3.82471
23528,114.89,39797.7,3.82668
23545,114.973,39826.2,3.83122
23562,115.056,39850.7,3.83258
23579,115.139,39871.2,3.83547
23596,115.222,39885.2,3.83891
23613,115.305,39899.3,3.84213
23630,115.3877,39935,3.84341
23647,115.4707,39961.9,3.84675
23664,115.554,39986.1,3.84984
23681,115.637,40009,3.85175
23698,115.72,40005.4,3.85451
23715,115.803,40048.8,3.8576
23732,115.886,40070.1,3.860646
23749,115.969,40101.5,3.86299
23766,116.052,40124.4,3.86469
23783,116.135,40136.4,3.86873
23800,116.218,40162.6,3.87219
23817,116.301,40193.3,3.87405
23834,116.384,40222.4,3.87781
23851,116.4668,40236.7,3.88079
23868,116.5498,40262,3.88309
23885,116.633,40287.6,3.88631
23902,116.716,40298.6,3.88806
23919,116.799,40335.5,3.89282
23936,116.882,40350.6,3.894568
23953,116.965,40378.1,3.89721
23970,117.048,40409.6,3.89847
23987,117.131,40432.6,3.90258
24004,117.214,40443.8,3.90414
24021,117.297,40469.4,3.90914
24038,117.38,40499.1,3.91032
24055,117.463,40520.7,3.9132
24072,117.5459,40532.6,3.915194
24089,117.629,40565.1,3.9179
24106,117.712,40571.3,3.91972
24123,117.795,40619.5,3.92506
24140,117.878,40628.6,3.92689
24157,117.961,40661.6,3.92959
24174,118.044,40678.1,3.93236
24191,118.127,40702.3,3.93511
24208,118.21,40729.6,3.93763
24225,118.293,40745.2,3.94054
24242,118.376,40781.1,3.94427
24259,118.459,40795.8,3.948
24276,118.542,40806.2,3.948812
24293,118.625,40834.6,3.95137
24310,118.708,40848.1,3.95383
24327,118.791,40886.4,3.956754
24344,118.874,40908.1,3.96073
24361,118.957,40923.8,3.96314
24378,119.04,40958.2,3.96453
24395,119.123,40971.7,3.96729
24412,119.206,40991.2,3.97261
24429,119.289,41012.6,3.97525
24446,119.372,41031.7,3.97623
24463,119.455,41044.2,3.97927
24480,119.538,41063.1,3.9815
24497,119.621,41090.8,3.985
24514,119.7041,41101,3.98645
24531,119.787,41143.4,3.98939
24548,119.87,41150.9,3.99284
24565,119.953,41181.3,3.99606
24582,120.036,41203.1,3.99941
24599,120.119,41213.9,4.0012
24616,120.202,41255.6,4.004333
24633,120.285,41266.9,4.00714
24650,120.368,41288.6,4.00863
24667,120.451,41317.8,4.01243
24684,120.534,41330.8,4.01526
24701,120.617,41348.8,4.01813
24718,120.7002,41367.3,4.02073
24735,120.7832,41400.8,4.02346
24752,120.866,41420.2,4.02612
24769,120.949,41434.2,4.02886
24786,121.032,41459.5,4.03107
24803,121.115,41475.8,4.03332
24820,121.198,41509.6,4.03737
24837,121.281,41518.4,4.03935
24854,121.364,41542.4,4.04326
24871,121.447,41569.3,4.044405
24888,121.53,41571.3,4.04888
24905,121.613,41606.6,4.05264
24922,121.696,41619.2,4.0528
24939,121.7793,41657.2,4.05801
24956,121.8623,41671.3,4.05934
24973,121.945,41684.6,4.06137
24990,122.028,41714.2,4.06452
25007,122.111,41722.5,4.06751
25024,122.194,41755.1,4.07099
25041,122.277,41782,4.07278
25058,122.36,41803.5,4.07655
25075,122.443,41817.4,4.07705
25092,122.526,41833.8,4.08074
25109,122.609,41865,4.08369
25126,122.692,41887.9,4.08628
25143,122.775,41902.5,4.08954
25149,122.805,-5765.76,4.664547