File: ASM109_2021_data/MTS/Quasi/MTS_quasi_7.csv
,Time [s],Load [N],Displacement [mm]
0,0.0078125,-526.676,0.002142638
17,0.0908203,-472.62,0.00293255
34,0.173828,-434.85,0.00561923
51,0.256836,-452.465,0.00744715
68,0.339844,-368.265,0.00947535
85,0.422852,-323.412,0.0135818
102,0.505859,-298.762,0.0154142
119,0.588867,-262.966,0.0193562
136,0.671875,-259.079,0.0203687
153,0.754883,-221.789,0.0234586
170,0.837891,-171.248,0.02788648
187,0.920898,-127.844,0.0289227
204,1.00391,-84.0286,0.03213644
221,1.08691,-101.118,0.0332218
238,1.16992,-29.0609,0.0365826
255,1.25293,-4.26341,0.038508
272,1.33594,27.6844,0.0430101
289,1.41895,85.7381,0.0472739
306,1.50195,95.3702,0.0478506
323,1.58496,155.471,0.051527
340,1.66797,173.955,0.0535244
357,1.75098,186.981,0.05666703
374,1.83398,217.031,0.0599706
391,1.91699,264.662,0.0622666
408,2.0,327.515,0.0655621
425,2.08301,310.755,0.0656618
442,2.16602,396.554,0.0711595
459,2.24902,385,0.0725596
476,2.33203,450.965,0.0772579
493,2.41504,502.151,0.0790402
510,2.49805,519.266,0.0813456
527,2.58105,569.186,0.0839031
544,2.66406,573.561,0.0854297
561,2.74707,597.512,0.0884789
578,2.83008,659.725,0.0943843
595,2.91309,697.069,0.0943342
612,2.99609,750.97,0.0991984
629,3.0791,741.019,0.0989641
646,3.16211,804.369,0.103645
663,3.24512,824.551,0.106807
680,3.328125,856.174,0.108441
697,3.41113,911.569,0.112131
714,3.49414,913.341,0.1123
731,3.57715,986.379,0.118965
748,3.66016,989.193,0.116834
765,3.74316,1022.99,0.122014
782,3.82617,1083.17,0.125825
799,3.90918,1114.55,0.127186
816,3.99219,1161.99,0.133161
833,4.0752,1171.69,0.13165
850,4.1582,1194.86,0.136415
867,4.24121,1252.25,0.138102
884,4.32422,1277.05,0.1419282
901,4.40723,1325.9,0.144403
918,4.49023,1308.01,0.146198
935,4.57324,1387.17,0.150397
952,4.65625,1415.14,0.153417
969,4.73926,1443.81,0.155354
986,4.82227,1493.56,0.159059
1003,4.90527,1524.31,0.159938
1020,4.98828,1568.73,0.164578
1037,5.07129,1589.05,0.165805
1054,5.1543,1617.7,0.170516
1071,5.2373,1662.26,0.173519
1088,5.32031,1688.26,0.173283
1105,5.40332,1745.85,0.178463
1122,5.48633,1750.35,0.179035
1139,5.56934,1800.52,0.182998
1156,5.65234,1835.38,0.186469
1173,5.73535,1855.7,0.188579
1190,5.81836,1918.33,0.192618
1207,5.90137,1924.79,0.193812
1224,5.984375,1983.64,0.197052
1241,6.06738,1948.95,0.197888
1258,6.15039,2027.02,0.202068
1275,6.2334,2076.39,0.205744
1292,6.31641,2072.55,0.207702
1309,6.39941,2150.15,0.2103053
1326,6.48242,2131.66,0.212381
1343,6.56543,2198.77,0.217746
1360,6.64844,2234.24,0.218757
1377,6.73145,2252.3,0.222856
1394,6.81445,2302.59,0.225275
1411,6.89746,2335.71,0.226292
1428,6.98047,2387.74,0.231007
1445,7.06348,2363.26,0.230567
1462,7.14648,2395.06,0.236504
1479,7.22949,2466.75,0.239265
1496,7.3125,2491.82,0.240517
1513,7.39551,2565.12,0.24422
1530,7.47852,2544.6,0.245495
1547,7.56152,2566.09,0.248732
1564,7.64453,2638.12,0.251776
1581,7.72754,2680.01,0.254283
1598,7.81055,2726.88,0.258112
1615,7.89355,2742.42,0.258972
1632,7.97656,2797.7,0.262217
1649,8.05957,2825.29,0.265805
1666,8.14258,2837.08,0.26822
1683,8.22559,2899.62,0.271976
1700,8.30859,2908.3,0.27458
1717,8.3916,2959.62,0.278446
1734,8.47461,2988.05,0.279779
1751,8.55762,3009.65,0.282591
1768,8.640625,3055.06,0.285587
1785,8.72363,3071.85,0.287657
1802,8.80664,3133.73,0.290232
1819,8.88965,3109.55,0.292919
1836,8.97266,3187.89,0.295846
1853,9.05566,3226.88,0.298853
1870,9.13867,3221.71,0.302774
1887,9.22168,3304.51,0.305428
1904,9.30469,3315.09,0.306213
1921,9.3877,3367.67,0.310535
1938,9.4707,3383.29,0.312871
1955,9.55371,3392.7,0.315954
1972,9.63672,3459.99,0.319142
1989,9.71973,3490.88,0.321258
2006,9.80273,3536.67,0.324155
2023,9.88574,3515.18,0.326184
2040,9.96875,3599.05,0.329206
2057,10.0518,3628.47,0.332837
2074,10.1348,3639.64,0.33548
2091,10.2178,3711.98,0.339895
2108,10.3008,3730.43,0.339638
2125,10.3838,3767.59,0.345213
2142,10.4668,3773.87,0.344612
2159,10.5498,3801.39,0.349936
2176,10.6328,3862.25,0.351709
2193,10.7158,3890.94,0.352881
2210,10.7988,3944.8,0.358602
2227,10.8818,3968.18,0.359631
2244,10.9648,3996.24,0.363054
2261,11.0479,4019.91,0.365293
2278,11.1309,4061.52,0.368608
2295,11.2139,4121.57,0.371528
2312,11.2969,4104.75,0.373039
2329,11.3799,4173.56,0.376274
2346,11.4629,4203.69,0.377821
2363,11.5459,4214.64,0.382807
2380,11.6289,4275.87,0.386508
2397,11.7119,4303.37,0.388183
2414,11.7949,4352.6,0.391391
2431,11.8779,4357.62,0.392822
2448,11.9609,4394.5,0.396261
2465,12.0439,4441.36,0.399218
2482,12.127,4465.62,0.403919
2499,12.21,4525.56,0.405268
2516,12.293,4514.16,0.405896
2533,12.376,4589.18,0.410326
2550,12.459,4598.5,0.413946
2567,12.542,4601.94,0.415685
2584,12.625,4676.53,0.418176
2601,12.708,4696.52,0.420596
2618,12.791,4739.49,0.425608
2635,12.874,4739.97,0.426687
2652,12.957,4758.17,0.429061
2669,13.04,4844.88,0.432588
2686,13.123,4870,0.434047
2703,13.2061,4923.2,0.4384625
2720,13.2891,4915.05,0.439752
2737,13.37207,4970.63,0.442217
2754,13.4551,5002.21,0.446653
2771,13.5381,5023.07,0.449085
2788,13.6211,5082.12,0.45217
2805,13.7041,5104.63,0.454145
2822,13.7871,5127.22,0.458646
2839,13.8701,5144.97,0.459297
2856,13.9531,5157,0.46275
2873,14.0361,5233.38,0.4655
2890,14.1191,5265.53,0.467286
2907,14.2021,5303.96,0.47121
2924,14.2852,5335.14,0.473094
2941,14.3682,5350.54,0.475788
2958,14.4512,5378.07,0.479762
2975,14.53418,5421.81,0.482072
2992,14.6172,5476.65,0.485433
3009,14.7002,5493.5,0.485483
3026,14.7832,5538.23,0.490943
3043,14.8662,5553.32,0.493122
3060,14.9492,5565.12,0.495516
3077,15.0322,5638.08,0.498175
3094,15.1152,5658.68,0.501708
3111,15.1982,5704.9,0.504148
3128,15.28125,5735.48,0.505604
3145,15.3643,5764.34,0.508335
3162,15.4473,5783.36,0.513202
3179,15.5303,5812.06,0.515894
3196,15.6133,5866.55,0.5186972
3213,15.6963,5899.48,0.5203284
3230,15.7793,5933.09,0.525151
3247,15.8623,5959.05,0.526053
3264,15.9453,5955.94,0.528555
3281,16.02832,6015.61,0.531739
3298,16.1113,6069.27,0.533908
3315,16.1943,6092.32,0.538973
3332,16.2773,6131.04,0.540241
3349,16.3604,6111.85,0.541412
3366,16.4434,6193.44,0.545479
3383,16.5264,6211.46,0.547824
3400,16.6094,6263.07,0.551874
3417,16.6924,6290.49,0.552481
3434,16.7754,6301.49,0.5563854
3451,16.8584,6355.01,0.55789
3468,16.9414,6353.2,0.560552
3485,17.0244,6429.36,0.565141
3502,17.1074,6448,0.567025
3519,17.19043,6491.41,0.571074
3536,17.2734,6531.57,0.5725224
3553,17.3564,6532.15,0.575662
3570,17.4395,6596.5,0.578426
3587,17.5225,6615.91,0.580889
3604,17.6055,6661.62,0.584607
3621,17.6885,6700.82,0.587928
3638,17.7715,6704.2,0.589774
3655,17.8545,6744.69,0.59242
3672,17.9375,6773.55,0.5945313
3689,18.0205,6831.9,0.600338
3706,18.1035,6840.07,0.599221
3723,18.1865,6892.56,0.60429
3740,18.2695,6933.23,0.606251
3757,18.3525,6932.55,0.607882
3774,18.4355,6990.51,0.612484
3791,18.5186,6999.9,0.613423
3808,18.6016,7070.4,0.618647
3825,18.68457,7075.6,0.619809
3842,18.7676,7089.76,0.621344
3859,18.8506,7135.44,0.62519
3876,18.9336,7144.86,0.627428
3893,19.0166,7232.17,0.632002
3910,19.0996,7246.64,0.633596
3927,19.1826,7273.01,0.637102
3944,19.2656,7320.94,0.639385
3961,19.3486,7313.79,0.641666
3978,19.4316,7386.95,0.645889
3995,19.5146,7411.27,0.6477052
4012,19.5977,7457.52,0.650817
4029,19.6807,7481.16,0.652956
4046,19.7637,7466.51,0.656293
4063,19.84668,7511.11,0.658671
4080,19.9297,7574.06,0.662409
4097,20.0127,7605.85,0.664556
4114,20.0957,7643.4,0.667904
4131,20.1787,7654.87,0.669514
4148,20.2617,7713.42,0.672307
4165,20.3447,7705.34,0.673294
4182,20.4277,7775.26,0.67928
4199,20.5107,7819.89,0.681837
4216,20.59375,7841.17,0.68473
4233,20.6768,7880.93,0.685894
4250,20.7598,7880.6,0.688419
4267,20.8428,7927.64,0.691385
4284,20.9258,7969.19,0.69436
4301,21.0088,8018.88,0.69863
4318,21.0918,8010.78,0.699189
4335,21.1748,8046,0.7030915
4352,21.2578,8108.31,0.705825
4369,21.34082,8129.77,0.707693
4386,21.4238,8165.38,0.711721
4403,21.5068,8194.97,0.714908
4420,21.5898,8238.65,0.717422
4437,21.6729,8264.52,0.71897
4454,21.7559,8253.77,0.72135
4471,21.8389,8318.68,0.724897
4488,21.9219,8320.67,0.72746
4505,22.0049,8382.58,0.731087
4522,22.0879,8415.26,0.733283
4539,22.1709,8420.16,0.73513
4556,22.2539,8488.47,0.739482
4573,22.3369,8487.94,0.740951
4590,22.4199,8546.08,0.744419
4607,22.50293,8578.79,0.748509
4624,22.5859,8604.67,0.748917
4641,22.6689,8648.41,0.751582
4658,22.752,8636.22,0.754927
4675,22.835,8709.59,0.759943
4692,22.918,8733.89,0.760475
4709,23.001,8787.19,0.76473
4726,23.084,8814.74,0.767068
4743,23.167,8811.49,0.769346
4760,23.25,8877.4,0.772746
4777,23.333,8898.44,0.773961
4794,23.416,8942.79,0.777983
4811,23.499,8965.49,0.781659
4828,23.582,8992.74,0.781557
4845,23.665,9045.43,0.786877
4862,23.748,9029.11,0.789607
4879,23.8311,9095.96,0.7924484
4896,23.9141,9136.62,0.795662
4913,23.99707,9176.8,0.797875
4930,24.0801,9199,0.802185
4947,24.1631,9162.86,0.802732
4964,24.2461,9242.71,0.805284
4981,24.3291,9279.6,0.808602
4998,24.4121,9330.93,0.811666
5015,24.4951,9353.12,0.814723
5032,24.5781,9377.44,0.816587
5049,24.6611,9431.56,0.818578
5066,24.7441,9429.34,0.8215946
5083,24.8271,9482.42,0.826171
5100,24.9102,9531.45,0.828984
5117,24.9932,9553.86,0.831735
5134,25.0762,9586.66,0.834149
5151,25.15918,9556.49,0.835806
5168,25.2422,9659.26,0.840104
5185,25.3252,9667.49,0.841949
5202,25.4082,9724.19,0.845855
5219,25.4912,9751.81,0.848677
5236,25.5742,9742.2,0.851538
5253,25.6572,9810.19,0.853612
5270,25.7402,9839.03,0.85598
5287,25.8232,9877.77,0.859324
5304,25.90625,9911.69,0.861695
5321,25.9893,9941.22,0.8637026
5338,26.0723,9992.4,0.867042
5355,26.1553,9968.22,0.870556
5372,26.2383,10036.1,0.873876
5389,26.3213,10081.8,0.875439
5406,26.4043,10109.7,0.878871
5423,26.4873,10160.6,0.881162
5440,26.5703,10157.5,0.882954
5457,26.65332,10198.3,0.886194
5474,26.7363,10237.9,0.889676
5491,26.8193,10278.6,0.894411
5508,26.9023,10319.1,0.895385
5525,26.9854,10308,0.897696
5542,27.0684,10369.9,0.901077
5559,27.1514,10371.9,0.90319
5576,27.2344,10442.4,0.906299
5593,27.3174,10462.8,0.909161
5610,27.4004,10496.9,0.912877
5627,27.4834,10531.8,0.9158957
5644,27.5664,10516.3,0.916614
5661,27.6494,10588.1,0.919387
5678,27.7324,10607.9,0.92181
5695,27.81543,10654.3,0.925271
5712,27.8984,10691.5,0.927728
5729,27.9814,10710.4,0.929927
5746,28.0645,10748,0.934196
5763,28.1475,10741.6,0.936808
5780,28.2305,10795.4,0.940194
5797,28.3135,10847.4,0.940943
5814,28.3965,10870,0.945501
5831,28.4795,10909.3,0.948822
5848,28.5625,10882.2,0.949054
5865,28.6455,10952.9,0.952874
5882,28.7285,10982.1,0.955373
5899,28.8115,11034.6,0.958765
5916,28.8945,11072.5,0.961833
5933,28.9775,11066.7,0.964244
5950,29.0605,11131,0.967005
5967,29.1436,11127.8,0.96948
5984,29.2266,11195.3,0.973192
6001,29.30957,11228.7,0.974437
6018,29.3926,11241.5,0.977963
6035,29.4756,11288,0.98225
6052,29.5586,11269.2,0.982079
6069,29.6416,11347.2,0.984232
6086,29.7246,11358.2,0.988883
6103,29.8076,11399.5,0.992173
6120,29.8906,11450.3,0.996159
6137,29.9736,11455.8,0.995902
6154,30.0566,11507.3,1.00115
6171,30.1396,11512,1.0009
6188,30.2227,11567.9,1.00547
6205,30.3057,11600.2,1.00757
6222,30.3887,11615.2,1.00949
6239,30.47168,11664.3,1.01514
6256,30.5547,11669.4,1.01584
6273,30.6377,11737.9,1.018235
6290,30.7207,11756.6,1.02174
6307,30.8037,11785.8,1.02607
6324,30.8867,11827.6,1.02682
6341,30.9697,11811,1.02853
6358,31.0527,11870,1.0329
6375,31.1357,11903,1.03623
6392,31.21875,11959.9,1.0389
6409,31.3018,11995.6,1.0416
6426,31.3848,12006.6,1.04404
6443,31.4678,12042.5,1.0461
6460,31.5508,12042.5,1.04842
6477,31.6338,12109.7,1.05186
6494,31.7168,12141.9,1.05535
6511,31.7998,12170.6,1.05811
6528,31.8828,12211.5,1.05974
6545,31.96582,12215.4,1.06223
6562,32.0488,12272.9,1.06677
6579,32.1318,12297.4,1.07009
6596,32.2148,12333.4,1.071551
6613,32.2979,12368,1.07402
6630,32.3809,12342.7,1.07713
6647,32.4639,12427,1.08026
6664,32.5469,12438.3,1.0807
6681,32.6299,12492.6,1.08704
6698,32.7129,12525.5,1.08843
6715,32.7959,12533.9,1.0922
6732,32.8789,12589.5,1.09434
6749,32.9619,12569.8,1.09532
6766,33.0449,12631.2,1.09783
6783,33.12793,12680.4,1.10238
6800,33.2109,12706.2,1.10463
6817,33.2939,12746.8,1.10703
6834,33.377,12743.2,1.10964
6851,33.46,12792,1.11357
6868,33.543,12802.9,1.11359
6885,33.626,12862.2,1.11905
6902,33.709,12887.9,1.12068
6919,33.792,12922.2,1.12478
6936,33.875,12970.6,1.1282
6953,33.958,12981.7,1.12884
6970,34.041,13017.9,1.13198
6987,34.124,13049.3,1.13663
7004,34.207,13089.8,1.13954
7021,34.29,13126.2,1.14144
7038,34.373,13114.4,1.14145
7055,34.4561,13176.9,1.14608
7072,34.5391,13197.3,1.14849
7089,34.62207,13229.7,1.15189
7106,34.7051,13268.4,1.1542
7123,34.7881,13249.3,1.1559
7140,34.8711,13325.3,1.15949
7157,34.9541,13326.7,1.16069
7174,35.0371,13377.6,1.16444
7191,35.1201,13427,1.16919
7208,35.2031,13452.1,1.17113
7225,35.2861,13494,1.1735
7242,35.3691,13478.1,1.1765
7259,35.4521,13532,1.17964
7276,35.5352,13566.8,1.18119
7293,35.6182,13610,1.18481
7310,35.7012,13643.3,1.18772
7327,35.78418,13637.9,1.188785
7344,35.8672,13700.9,1.19183
7361,35.9502,13702.4,1.1952
7378,36.0332,13771.6,1.19851
7395,36.1162,13800.6,1.20151
7412,36.1992,13828.5,1.20382
7429,36.2822,13868.2,1.207087
7446,36.3652,13858.2,1.20916
7463,36.4482,13901.7,1.21197
7480,36.53125,13937.8,1.215363
7497,36.6143,13974.3,1.2173
7514,36.6973,14017,1.22128
7531,36.7803,14023.5,1.222491
7548,36.8633,14076.2,1.225
7565,36.9463,14102.7,1.22791
7582,37.0293,14125.5,1.23277
7599,37.1123,14167.4,1.23508
7616,37.1953,14199.1,1.23734
7633,37.27832,14245.3,1.24207
7650,37.3613,14230.3,1.24201
7667,37.4443,14288.5,1.24599
7684,37.5273,14325.7,1.24768
7701,37.6104,14359,1.25141
7718,37.6934,14380.6,1.25352
7735,37.7764,14382,1.25651
7752,37.8594,14435.4,1.25818
7769,37.9424,14470.4,1.26004
7786,38.0254,14502.5,1.265902
7803,38.1084,14537.9,1.26691
7820,38.1914,14537.3,1.27025
7837,38.2744,14606.3,1.27211
7854,38.3574,14600.1,1.27515
7871,38.44043,14662.3,1.27942
7888,38.5234,14697.9,1.28178
7905,38.6064,14726.6,1.28373
7922,38.6895,14763.3,1.28759
7939,38.7725,14740.3,1.28969
7956,38.8555,14808.4,1.29172
7973,38.9385,14843.2,1.29383
7990,39.0215,14875.7,1.29803
8007,39.1045,14914.3,1.30064
8024,39.1875,14937.6,1.30357
8041,39.2705,14988.6,1.30663
8058,39.3535,14994.1,1.30788
8075,39.4365,15024.5,1.31186
8092,39.5195,15078.4,1.31433
8109,39.6025,15099.8,1.31662
8126,39.6855,15130.5,1.32094
8143,39.7686,15129.1,1.32164
8160,39.8516,15175,1.32486
8177,39.93457,15213.7,1.3293
8194,40.0176,15240.8,1.33046
8211,40.1006,15281.1,1.33383
8228,40.1836,15253.6,1.33489
8245,40.2666,15348.6,1.3379
8262,40.3496,15370.6,1.34048
8279,40.4326,15397.1,1.34447
8296,40.5156,15445.5,1.3487
8313,40.5986,15475.1,1.35052
8330,40.6816,15505.7,1.35383
8347,40.7646,15484.4,1.35392
8364,40.8477,15558.7,1.35908
8381,40.9307,15588.7,1.36113
8398,41.0137,15617.4,1.36531
8415,41.09668,15655.4,1.36664
8432,41.1797,15684.4,1.36879
8449,41.2627,15721.5,1.37171
8466,41.3457,15737.4,1.37429
8483,41.4287,15755.6,1.37817
8500,41.5117,15814.2,1.38204
8517,41.5947,15830.8,1.38304
8534,41.6777,15876.9,1.38687
8551,41.7607,15887.1,1.3877
8568,41.84375,15904.7,1.39147
8585,41.9268,15967.6,1.39439
8602,42.0098,15990,1.39738
8619,42.0928,16030,1.400097
8636,42.1758,16031.3,1.40195
8653,42.2588,16093.4,1.40644
8670,42.3418,16120.2,1.408005
8687,42.4248,16135.8,1.41127
8704,42.5078,16182.2,1.41448
8721,42.59082,16210.1,1.41596
8738,42.6738,16263.5,1.42143
8755,42.7568,16258.3,1.42135
8772,42.8398,16290.2,1.42712
8789,42.9229,16349.4,1.42809
8806,43.0059,16367,1.43145
8823,43.0889,16403.6,1.43429
8840,43.1719,16406,1.43478
8857,43.2549,16463.1,1.43876
8874,43.3379,16487.3,1.442332
8891,43.4209,16516,1.44453
8908,43.5039,16569,1.44848
8925,43.5869,16570,1.44841
8942,43.6699,16612.2,1.45446
8959,43.75293,16630.8,1.45585
8976,43.8359,16672.8,1.45857
8993,43.9189,16728.3,1.4623
9010,44.002,16713.7,1.46313
9027,44.085,16771.8,1.46748
9044,44.168,16789.9,1.46808
9061,44.251,16823.7,1.47176
9078,44.334,16862.5,1.47607
9095,44.417,16895.5,1.47754
9112,44.5,16935.6,1.48179
9129,44.583,16953,1.48354
9146,44.666,16975.1,1.48605
9163,44.749,17011.4,1.48952
9180,44.832,17032.4,1.49147
9197,44.915,17084.3,1.49484
9214,44.998,17101.7,1.4968
9231,45.0811,17152.6,1.5006
9248,45.1641,17162.6,1.50152
9265,45.24707,17195.3,1.50511
9282,45.3301,17237.3,1.50877
9299,45.4131,17260,1.51117
9316,45.4961,17303.3,1.51377
9333,45.5791,17303.8,1.51575
9350,45.6621,17326.3,1.5204
9367,45.7451,17387.9,1.52219
9384,45.8281,17412.7,1.52545
9401,45.9111,17459.3,1.52875
9418,45.9941,17478.3,1.53024
9435,46.0771,17514.1,1.53576
9452,46.1602,17547.1,1.535115
9469,46.2432,17561.4,1.53928
9486,46.3262,17600.7,1.54304
9503,46.40918,17627.7,1.54396
9520,46.4922,17663.6,1.54792
9537,46.5752,17676.4,1.54924
9554,46.6582,17715.3,1.55253
9571,46.7412,17758.3,1.55684
9588,46.8242,17779.9,1.55851
9605,46.9072,17828.7,1.56165
9622,46.9902,17816,1.56208
9639,47.0732,17881.9,1.5676
9656,47.15625,17912.4,1.57066
9673,47.2393,17919.7,1.572732
9690,47.3223,17973,1.57665
9707,47.4053,17981.7,1.57754
9724,47.4883,18033.8,1.58095
9741,47.5713,18056.7,1.58205
9758,47.6543,18077.6,1.5879
9775,47.7373,18122.3,1.58891
9792,47.8203,18147.6,1.5917
9809,47.90332,18197,1.59481
9826,47.9863,18212.9,1.59696
9843,48.0693,18253.3,1.6002
9860,48.1523,18273.1,1.60237
9877,48.2354,18303.6,1.60591
9894,48.3184,18356.1,1.60897
9911,48.4014,18371,1.61104
9928,48.4844,18413,1.61474
9945,48.5674,18433.4,1.61603
9962,48.6504,18448.7,1.62043
9979,48.7334,18490.8,1.6241
9996,48.8164,18497,1.624766
10013,48.8994,18562.9,1.6277
10030,48.9824,18565.1,1.62979
10047,49.06543,18593.3,1.63433
10064,49.1484,18644.4,1.63705
10081,49.2314,18675,1.63866
10098,49.3145,18714.5,1.64257
10115,49.3975,18727.4,1.64322
10132,49.4805,18771.9,1.64677
10149,49.5635,18804.1,1.650002
10166,49.6465,18808.7,1.65249
10183,49.7295,18855,1.65541
10200,49.8125,18882.2,1.65793
10217,49.8955,18926.9,1.66165
10234,49.9785,18925.7,1.66246
10251,50.0615,18965.7,1.66552
10268,50.1445,19006.9,1.66892
10285,50.2275,19029.6,1.6716
10302,50.3105,19088.7,1.67557
10319,50.3936,19061.5,1.67628
10336,50.4766,19136.3,1.68099
10353,50.55957,19149.1,1.68125
10370,50.6426,19164.8,1.68616
10387,50.7256,19218.4,1.68992
10404,50.8086,19246.4,1.69241
10421,50.8916,19279.2,1.69505
10438,50.9746,19318,1.696718
10455,51.0576,19313.7,1.69957
10472,51.1406,19364.1,1.70034
10489,51.2236,19386.1,1.704509
10506,51.3066,19438.3,1.70778
10523,51.3896,19447.4,1.71013
10540,51.4727,19486.2,1.71315
10557,51.5557,19517.2,1.71546
10574,51.6387,19525.6,1.71871
10591,51.72168,19583.9,1.72134
10608,51.8047,19613.2,1.72272
10625,51.8877,19647.4,1.72666
10642,51.9707,19668.4,1.73077
10659,52.0537,19671.9,1.731618
10676,52.1367,19726.5,1.73388
10693,52.2197,19751.6,1.73848
10710,52.3027,19809.3,1.74179
10727,52.3857,19817.2,1.74261
10744,52.46875,19828.3,1.74723
10761,52.5518,19874.4,1.74921
10778,52.6348,19912.9,1.75186
10795,52.7178,19958.1,1.75574
10812,52.8008,19964.1,1.75731
10829,52.8838,20015.2,1.76055
10846,52.9668,20035.3,1.76231
10863,53.0498,20002.9,1.76542
10880,53.1328,20097.2,1.76869
10897,53.2158,20111.3,1.771033
10914,53.2988,20169.8,1.77427
10931,53.3818,20180,1.77683
10948,53.4648,20194.2,1.77934
10965,53.5479,20238.8,1.78206
10982,53.6309,20265.8,1.78538
10999,53.7139,20317,1.78839
11016,53.7969,20304.4,1.78863
11033,53.8799,20365.1,1.79373
11050,53.9629,20396.1,1.7953
11067,54.0459,20403.5,1.79954
11084,54.1289,20461.1,1.80324
11101,54.2119,20471.9,1.80197
11118,54.2949,20522.9,1.80848
11135,54.3779,20545,1.81107
11152,54.4609,20540.9,1.81452
11169,54.5439,20594.7,1.815243
11186,54.627,20634.6,1.818071
11203,54.71,20672.8,1.82109
11220,54.793,20686.2,1.82329
11237,54.876,20725.5,1.82435
11254,54.959,20758.8,1.82947
11271,55.042,20747.1,1.83226
11288,55.125,20831.3,1.83594
11305,55.208,20849.2,1.8373
11322,55.291,20893.8,1.8402
11339,55.374,20873.9,1.84259
11356,55.457,20923.6,1.84473
11373,55.54,20954.6,1.84822
11390,55.623,20975.9,1.85125
11407,55.7061,21031.5,1.85578
11424,55.7891,21055.9,1.85742
11441,55.8721,21083.9,1.85912
11458,55.9551,21089.7,1.86176
11475,56.0381,21127.6,1.86641
11492,56.1211,21190.9,1.86948
11509,56.2041,21201.9,1.869446
11526,56.2871,21238.8,1.8741
11543,56.3701,21253.3,1.87755
11560,56.4531,21292.2,1.87959
11577,56.5361,21331.1,1.88236
11594,56.6191,21346.2,1.88462
11611,56.7021,21399.2,1.88749
11628,56.7852,21395.1,1.8883
11645,56.8682,21442.2,1.8922
11662,56.9512,21475.1,1.895273
11679,57.0342,21491.7,1.89862
11696,57.1172,21557.2,1.90179
11713,57.2002,21578.6,1.90489
11730,57.2832,21593.4,1.90705
11747,57.3662,21639,1.908448
11764,57.4492,21619.6,1.91203
11781,57.5322,21681.9,1.91457
11798,57.6152,21692,1.91768
11815,57.6982,21751.1,1.92088
11832,57.78125,21776.7,1.92261
11849,57.8643,21801.2,1.92424
11866,57.9473,21846.2,1.92916
11883,58.0303,21863.3,1.93258
11900,58.1133,21920.5,1.93494
11917,58.1963,21912.1,1.93604
11934,58.2793,21955,1.93991
11951,58.3623,21987.2,1.94261
11968,58.4453,21988.5,1.94576
11985,58.5283,22065.2,1.94805
12002,58.6113,22087.2,1.95131
12019,58.6943,22113.3,1.95305
12036,58.7773,22129.2,1.95541
12053,58.8604,22143,1.95885
12070,58.9434,22215.7,1.96239
12087,59.0264,22215.1,1.96363
12104,59.1094,22276.9,1.97
12121,59.1924,22299,1.97069
12138,59.2754,22327.7,1.97387
12155,59.3584,22358.8,1.97644
12172,59.4414,22362.5,1.97847
12189,59.5244,22424.6,1.98091
12206,59.6074,22456.6,1.98445
12223,59.6904,22473.7,1.98695
12240,59.7734,22510.9,1.98982
12257,59.8564,22506.3,1.990849
12274,59.9395,22573,1.995559
12291,60.0225,22581.4,1.99826
12308,60.1055,22638.5,2.00162
12325,60.1885,22660.7,2.00361
12342,60.2715,22679.1,2.00556
12359,60.3545,22708,2.00899
12376,60.4375,22740.3,2.01127
12393,60.5205,22790.8,2.01603
12410,60.6035,22803.7,2.01797
12427,60.6865,22838.7,2.01986
12444,60.7695,22870.3,2.02381
12461,60.8525,22874.3,2.02636
12478,60.9355,22914.5,2.02925
12495,61.0186,22938.8,2.03191
12512,61.1016,22989.6,2.035532
12529,61.1846,23024.7,2.03603
12546,61.2676,23047.3,2.03997
12563,61.3506,23058,2.04248
12580,61.4336,23089.5,2.04463
12597,61.5166,23144.7,2.04839
12614,61.5996,23150.2,2.04834
12631,61.6826,23193.8,2.0544
12648,61.7656,23228.5,2.05795
12665,61.8486,23225,2.05868
12682,61.9316,23284.1,2.06326
12699,62.0146,23302.9,2.06417
12716,62.0977,23335.3,2.06854
12733,62.1807,23372.7,2.071352
12750,62.2637,23364,2.07284
12767,62.3467,23425.3,2.07574
12784,62.4297,23446.4,2.07779
12801,62.5127,23494.2,2.08152
12818,62.5957,23511.9,2.08346
12835,62.6787,23544.7,2.087034
12852,62.7617,23581,2.08991
12869,62.8447,23582.5,2.09245
12886,62.9277,23637.8,2.0946
12903,63.0107,23656.7,2.09823
12920,63.09375,23691.7,2.10049
12937,63.1768,23722.6,2.10321
12954,63.2598,23713.4,2.10567
12971,63.3428,23775.5,2.10965
12988,63.4258,23800.1,2.110733
13005,63.5088,23836.1,2.11332
13022,63.5918,23874.8,2.11763
13039,63.6748,23862.6,2.11933
13056,63.7578,23917.1,2.12237
13073,63.8408,23927.7,2.12387
13090,63.9238,23979.9,2.1305
13107,64.0068,24007.2,2.13077
13124,64.0898,24043.8,2.13321
13141,64.1729,24078.2,2.13598
13158,64.2559,24063.7,2.1388
13175,64.3389,24127.3,2.14266
13192,64.4219,24155.2,2.14431
13209,64.5049,24198.5,2.14706
13226,64.5879,24223.4,2.15086
13243,64.6709,24243.8,2.1527
13260,64.7539,24269.5,2.1563
13277,64.8369,24302.9,2.15749
13294,64.9199,24342.6,2.16166
13311,65.00293,24379,2.16491
13328,65.0859,24401.7,2.16659
13345,65.1689,24427.8,2.16857
13362,65.252,24395.9,2.17166
13379,65.335,24487.1,2.17481
13396,65.418,24503.1,2.1769
13413,65.501,24549.4,2.179724
13430,65.584,24580.3,2.1849
13447,65.667,24563.8,2.18589
13464,65.75,24637.6,2.18857
13481,65.833,24655.8,2.1901
13498,65.916,24701.7,2.19611
13515,65.999,24725.7,2.19776
13532,66.082,24754.5,2.19946
13549,66.165,24783.5,2.20422
13566,66.248,24779.5,2.20458
13583,66.3311,24838.6,2.20854
13600,66.4141,24874.9,2.21224
13617,66.49707,24896.4,2.21412
13634,66.5801,24927.2,2.21538
13651,66.6631,24946.2,2.21895
13668,66.7461,24985.8,2.22131
13685,66.8291,25010.3,2.22314
13702,66.9121,25051.2,2.22777
13719,66.9951,25077.8,2.23196
13736,67.0781,25096.1,2.23304
13753,67.1611,25134,2.23664
13770,67.2441,25122.5,2.2404
13787,67.3271,25190.1,2.24162
13804,67.4102,25223.7,2.24342
13821,67.4932,25261.5,2.2485
13838,67.5762,25277.8,2.24884
13855,67.65918,25264.1,2.25119
13872,67.7422,25332.4,2.255754
13889,67.8252,25365.9,2.258235
13906,67.9082,25401.3,2.26098
13923,67.9912,25430.5,2.26466
13940,68.0742,25416.4,2.2653
13957,68.1572,25486,2.26988
13974,68.2402,25510.8,2.27076
13991,68.3232,25544.4,2.27418
14008,68.40625,25583,2.27805
14025,68.4893,25613.2,2.28102
14042,68.5723,25641,2.2832
14059,68.6553,25637.5,2.2847
14076,68.7383,25694.7,2.28909
14093,68.8213,25717.7,2.2908
14110,68.9043,25745.4,2.29386
14127,68.9873,25789.9,2.29631
14144,69.0703,25787.3,2.29774
14161,69.15332,25835.1,2.30164
14178,69.2363,25844.7,2.30525
14195,69.3193,25900.1,2.30754
14212,69.4023,25919.8,2.31095
14229,69.4854,25956.1,2.31338
14246,69.5684,25991.1,2.315948
14263,69.6514,25996.2,2.319468
14280,69.7344,26039.4,2.32198
14297,69.8174,26074.9,2.32413
14314,69.9004,26098.2,2.32833
14331,69.9834,26142.2,2.33141
14348,70.0664,26148.8,2.3325
14365,70.1494,26190.7,2.33587
14382,70.2324,26213.3,2.33875
14399,70.31543,26239.6,2.34086
14416,70.3984,26287.7,2.346
14433,70.4814,26301.1,2.345463
14450,70.5645,26346.1,2.34906
14467,70.6475,26362,2.35248
14484,70.7305,26400.5,2.355514
14501,70.8135,26426.6,2.35759
14518,70.8965,26436.4,2.36036
14535,70.9795,26488.7,2.36541
14552,71.0625,26494.3,2.36445
14569,71.1455,26540.3,2.36862
14586,71.2285,26567.6,2.37092
14603,71.3115,26592.2,2.37537
14620,71.3945,26636.5,2.377713
14637,71.4775,26640.3,2.37841
14654,71.5605,26694.4,2.382
14671,71.6436,26703.9,2.38378
14688,71.7266,26755.5,2.38801
14705,71.80957,26781.5,2.38947
14722,71.8926,26805.8,2.39239
14739,71.9756,26844.3,2.39721
14756,72.0586,26823.8,2.39867
14773,72.1416,26903,2.40267
14790,72.2246,26924.8,2.40439
14807,72.3076,26952.1,2.40816
14824,72.3906,26976.5,2.41043
14841,72.4736,26977.5,2.41344
14858,72.5566,27045,2.41499
14875,72.6396,27063,2.41822
14892,72.7227,27094.9,2.42131
14909,72.8057,27141.1,2.42421
14926,72.8887,27153.4,2.4267
14943,72.97168,27169.4,2.42879
14960,73.0547,27196.9,2.43129
14977,73.1377,27243.3,2.43328
14994,73.2207,27279.9,2.43835
15011,73.3037,27297.7,2.44122
15028,73.3867,27344.1,2.44404
15045,73.4697,27345.3,2.44352
15062,73.5527,27386.2,2.448
15079,73.6357,27406.2,2.45074
15096,73.71875,27453.1,2.45462
15113,73.8018,27485.2,2.45729
15130,73.8848,27488.5,2.4591
15147,73.9678,27545.6,2.46212
15164,74.0508,27558.9,2.46305
15181,74.1338,27594.3,2.46795
15198,74.2168,27623.7,2.47191
15215,74.2998,27629.8,2.47476
15232,74.3828,27688.4,2.47668
15249,74.46582,27685.7,2.47739
15266,74.5488,27729.3,2.48235
15283,74.6318,27767.3,2.48532
15300,74.7148,27797.5,2.48869
15317,74.7979,27839,2.49063
15334,74.8809,27838.7,2.49281
15351,74.9639,27871.9,2.49608
15368,75.0469,27886,2.49676
15385,75.1299,27938.4,2.50141
15402,75.2129,27981.2,2.50404
15419,75.2959,28002.9,2.5075
15436,75.3789,28037.2,2.51107
15453,75.4619,28036.3,2.511869
15470,75.5449,28085.1,2.51495
15487,75.62793,28111.8,2.51726
15504,75.7109,28148.5,2.52115
15521,75.7939,28180.9,2.52382
15538,75.877,28194.6,2.52517
15555,75.96,28232.8,2.52863
15572,76.043,28254.9,2.53053
15589,76.126,28293.4,2.53432
15606,76.209,28319.6,2.53736
15623,76.292,28340.1,2.54036
15640,76.375,28385.1,2.5419
15657,76.458,28383.3,2.54421
15674,76.541,28424.1,2.5482
15691,76.624,28465.8,2.552
15708,76.707,28481.5,2.55406
15725,76.79,28537.9,2.557775
15742,76.873,28549.8,2.55898
15759,76.9561,28567.6,2.56251
15776,77.0391,28600,2.56422
15793,77.12207,28633.8,2.56789
15810,77.2051,28665.2,2.57087
15827,77.2881,28692.2,2.57322
15844,77.3711,28721.1,2.5771
15861,77.4541,28733.3,2.57823
15878,77.5371,28776.1,2.58187
15895,77.6201,28806.7,2.58386
15912,77.7031,28834.6,2.58709
15929,77.7861,28882.3,2.59075
15946,77.8691,28862.8,2.59234
15963,77.9521,28917,2.59525
15980,78.0352,28930.5,2.5975
15997,78.1182,28987.3,2.59989
16014,78.2012,29010.2,2.60421
16031,78.28418,29026.2,2.60574
16048,78.3672,29072.5,2.60839
16065,78.4502,29090.2,2.61103
16082,78.5332,29117.4,2.61531
16099,78.6162,29169.5,2.61717
16116,78.6992,29171.1,2.6225
16133,78.7822,29224.5,2.62316
16150,78.8652,29230.2,2.62484
16167,78.9482,29272.1,2.62882
16184,79.03125,29310,2.63009
16201,79.1143,29338.5,2.63391
16218,79.1973,29353.8,2.63703
16235,79.2803,29374.4,2.63955
16252,79.3633,29407.2,2.64181
16269,79.4463,29436.7,2.64391
16286,79.5293,29467.5,2.648946
16303,79.6123,29511.7,2.6503
16320,79.6953,29530.7,2.65229
16337,79.77832,29569.4,2.65586
16354,79.8613,29569,2.65856
16371,79.9443,29613.5,2.66195
16388,80.0273,29628.3,2.66289
16405,80.1104,29672.5,2.66729
16422,80.1934,29719,2.67116
16439,80.2764,29716.9,2.671828
16456,80.3594,29760.4,2.67479
16473,80.4424,29787.4,2.67657
16490,80.5254,29807.6,2.68032
16507,80.6084,29848,2.68345
16524,80.6914,29855.1,2.68545
16541,80.7744,29905.3,2.6894
16558,80.8574,29908.9,2.69167
16575,80.94043,29960.4,2.69495
16592,81.0234,29989.1,2.6977
16609,81.1064,30021.8,2.69842
16626,81.1895,30054.1,2.70439
16643,81.2725,30035.9,2.70461
16660,81.3555,30093.3,2.70798
16677,81.4385,30126.7,2.71113
16694,81.5215,30164.1,2.71451
16711,81.6045,30186.5,2.71772
16728,81.6875,30223.2,2.72052
16745,81.7705,30258,2.72359
16762,81.8535,30274.2,2.72491
16779,81.9365,30306.6,2.72964
16796,82.0195,30338.8,2.73101
16813,82.1025,30362.8,2.73486
16830,82.1855,30401.6,2.73762
16847,82.2686,30386,2.73862
16864,82.3516,30456.1,2.74037
16881,82.43457,30479.3,2.74584
16898,82.5176,30507.9,2.74861
16915,82.6006,30538.4,2.75248
16932,82.6836,30556.3,2.75233
16949,82.7666,30607.9,2.75747
16966,82.8496,30610.4,2.757859
16983,82.9326,30648,2.76245
17000,83.0156,30688.5,2.76492
17017,83.0986,30710.1,2.76709
17034,83.1816,30753.1,2.77144
17051,83.2646,30757.2,2.77101
17068,83.3477,30780.1,2.77642
17085,83.4307,30837.2,2.77937
17102,83.5137,30854.6,2.78135
17119,83.59668,30889.7,2.7841
17136,83.6797,30907.1,2.786943
17153,83.7627,30945.5,2.78904
17170,83.8457,30958.2,2.79273
17187,83.9287,31000.5,2.79662
17204,84.0117,31041.7,2.79745
17221,84.0947,31047,2.799273
17238,84.1777,31095.1,2.80443
17255,84.2607,31075.7,2.80545
17272,84.34375,31143.2,2.80981
17289,84.4268,31179.2,2.81245
17306,84.5098,31213.5,2.81535
17323,84.5928,31232,2.81779
17340,84.6758,31254.3,2.82038
17357,84.7588,31276,2.82211
17374,84.8418,31307.8,2.82615
17391,84.9248,31325.1,2.82854
17408,85.0078,31379,2.832494
17425,85.09082,31402.4,2.83264
17442,85.1738,31435.5,2.83781
17459,85.2568,31450.4,2.83943
17476,85.3398,31479,2.842886
17493,85.4229,31517.2,2.84597
17510,85.5059,31538.7,2.84828
17527,85.5889,31569.5,2.85134
17544,85.6719,31581.4,2.85117
17561,85.7549,31621.9,2.85553
17578,85.8379,31641,2.85911
17595,85.9209,31681.3,2.8616
17612,86.0039,31712.8,2.86395
17629,86.0869,31736.2,2.86663
17646,86.1699,31773.5,2.87026
17663,86.25293,31787.8,2.87137
17680,86.3359,31809.9,2.875
17697,86.4189,31855,2.879353
17714,86.502,31882.5,2.88135
17731,86.585,31914,2.88364
17748,86.668,31933.7,2.88608
17765,86.751,31963.2,2.88892
17782,86.834,31987.8,2.89139
17799,86.917,32009.6,2.89401
17816,87.0,32054.6,2.89838
17833,87.083,32058.1,2.89945
17850,87.166,32101.7,2.90215
17867,87.249,32130.7,2.905376
17884,87.332,32161.9,2.90925
17901,87.415,32202.1,2.91157
17918,87.498,32221.5,2.913959
17935,87.5811,32252,2.91763
17952,87.6641,32281.3,2.91956
17969,87.74707,32286.7,2.92125
17986,87.8301,32338.1,2.92471
18003,87.9131,32350.4,2.92743
18020,87.9961,32396.1,2.93044
18037,88.0791,32382.9,2.93241
18054,88.1621,32448.3,2.93581
18071,88.2451,32479.8,2.939836
18088,88.3281,32509.7,2.94184
18105,88.4111,32544.4,2.94479
18122,88.4941,32566.5,2.94841
18139,88.5771,32599.9,2.95068
18156,88.6602,32601.7,2.95148
18173,88.7432,32641.4,2.9546
18190,88.8262,32678.9,2.95966
18207,88.90918,32697.1,2.96148
18224,88.9922,32737.9,2.96511
18241,89.0752,32760.6,2.96503
18258,89.1582,32776.8,2.97027
18275,89.2412,32801.8,2.97274
18292,89.3242,32842.4,2.97501
18309,89.4072,32882.2,2.97865
18326,89.4902,32896.4,2.98091
18343,89.5732,32936.8,2.982688
18360,89.65625,32963.4,2.98666
18377,89.7393,32973.6,2.98813
18394,89.8223,33010.8,2.99178
18411,89.9053,33043.7,2.99422
18428,89.9883,33077,2.99767
18445,90.0713,33105,2.99892
18462,90.1543,33112.1,3.00361
18479,90.2373,33147.8,3.00553
18496,90.3203,33172.7,3.00845
18513,90.40332,33213.5,3.01014
18530,90.4863,33224.5,3.01229
18547,90.5693,33265.1,3.01605
18564,90.6523,33285.8,3.01853
18581,90.7354,33310.6,3.02152
18598,90.8184,33353.7,3.02574
18615,90.9014,33363.7,3.02596
18632,90.9844,33407.8,3.03103
18649,91.0674,33435.2,3.03217
18666,91.1504,33450.7,3.03478
18683,91.2334,33489.4,3.03923
18700,91.3164,33506.1,3.04175
18717,91.3994,33551.3,3.04454
18734,91.4824,33555.5,3.04626
18751,91.56543,33586.8,3.049077
18768,91.6484,33626,3.0516
18785,91.7314,33648.4,3.05447
18802,91.8145,33689.1,3.05762
18819,91.8975,33704.6,3.061214
18836,91.9805,33746.2,3.06469
18853,92.0635,33753.8,3.06511
18870,92.1465,33764.5,3.06758
18887,92.2295,33827,3.07253
18904,92.3125,33842.5,3.07234
18921,92.3955,33895.2,3.07774
18938,92.4785,33886,3.07812
18955,92.5615,33919.3,3.0827
18972,92.6445,33957.5,3.08649
18989,92.7275,33973.8,3.08583
19006,92.8105,34036.4,3.09246
19023,92.8936,34023.2,3.09278
19040,92.9766,34082.5,3.09698
19057,93.05957,34107.5,3.09869
19074,93.1426,34110.2,3.10151
19091,93.2256,34155.8,3.10518
19108,93.3086,34175.2,3.10691
19125,93.3916,34224.5,3.11138
19142,93.4746,34238.8,3.11274
19159,93.5576,34254.4,3.11535
19176,93.6406,34280.5,3.11875
19193,93.7236,34303,3.12054
19210,93.8066,34350.3,3.124263
19227,93.8896,34375.4,3.12587
19244,93.9727,34406.8,3.12965
19261,94.0557,34430.3,3.130897
19278,94.1387,34434.7,3.13468
19295,94.22168,34494.8,3.13781
19312,94.3047,34511.3,3.140645
19329,94.3877,34554.6,3.14383
19346,94.4707,34572.6,3.14707
19363,94.5537,34584.2,3.14913
19380,94.6367,34624.6,3.15151
19397,94.7197,34643,3.15383
19414,94.8027,34688.9,3.15779
19431,94.8857,34697.3,3.15935
19448,94.96875,34724.2,3.16114
19465,95.0518,34759.9,3.16507
19482,95.1348,34766.6,3.16833
19499,95.2178,34822.4,3.17231
19516,95.3008,34839.7,3.17272
19533,95.3838,34876.1,3.17552
19550,95.4668,34889.1,3.18049
19567,95.5498,34910.1,3.18254
19584,95.6328,34967.4,3.18533
19601,95.71582,34965.1,3.1863
19618,95.7988,35011.4,3.19035
19635,95.8818,35038.5,3.19382
19652,95.9648,35068.5,3.19691
19669,96.0479,35097.3,3.19899
19686,96.1309,35097.3,3.20257
19703,96.2139,35154.1,3.20502
19720,96.2969,35165.4,3.20589
19737,96.3799,35215.7,3.21081
19754,96.4629,35233.2,3.21224
19771,96.5459,35243.1,3.21461
19788,96.6289,35300.6,3.21729
19805,96.7119,35317.5,3.22074
19822,96.7949,35348.4,3.22351
19839,96.87793,35366.8,3.22547
19856,96.9609,35399,3.22827
19873,97.0439,35424.3,3.23173
19890,97.127,35442.8,3.23365
19907,97.21,35494.9,3.23788
19924,97.293,35515.5,3.23934
19941,97.376,35533.8,3.24193
19958,97.459,35558.6,3.24418
19975,97.542,35580.8,3.2498
19992,97.625,35629.2,3.25255
20009,97.708,35654.7,3.253077
20026,97.791,35682.7,3.2588
20043,97.874,35701.2,3.25968
20060,97.957,35732.4,3.26177
20077,98.04,35769.6,3.26397
20094,98.123,35786.6,3.26752
20111,98.2061,35828,3.27121
20128,98.2891,35840.8,3.27308
20145,98.37207,35869.7,3.27491
20162,98.4551,35895.9,3.278337
20179,98.5381,35913.9,3.28263
20196,98.6211,35956.2,3.28497
20213,98.7041,35973.2,3.28567
20230,98.7871,36016.4,3.28965
20247,98.8701,36042,3.29316
20264,98.9531,36051.3,3.29393
20281,99.0361,36103.5,3.29853
20298,99.1191,36118.8,3.30112
20315,99.2021,36152,3.30371
20332,99.2852,36179.9,3.30596
20349,99.3682,36199.9,3.30893
20366,99.4512,36204.2,3.31197
20383,99.53418,36246,3.31425
20400,99.6172,36287.1,3.3171
20417,99.7002,36301.1,3.31968
20434,99.7832,36331.2,3.32304
20451,99.8662,36358.2,3.32515
20468,99.9492,36370.1,3.32885
20485,100.032,36423.3,3.3326
20502,100.115,36445.1,3.333673
20519,100.198,36485.9,3.33655
20536,100.281,36509.8,3.3407
20553,100.364,36513.3,3.34162
20570,100.447,36554.2,3.3458
20587,100.53,36571.2,3.34638
20604,100.613,36612.8,3.34874
20621,100.696,36648.2,3.35202
20638,100.7793,36653.4,3.356164
20655,100.8623,36678.1,3.35726
20672,100.945,36695.6,3.36135
20689,101.028,36748,3.36366
20706,101.111,36774.4,3.36782
20723,101.194,36805.7,3.37032
20740,101.277,36832.3,3.37287
20757,101.36,36857.8,3.37446
20774,101.443,36882.4,3.37785
20791,101.526,36902.5,3.379729
20808,101.609,36935.7,3.38332
20825,101.692,36965.6,3.385308
20842,101.775,36988.2,3.3893
20859,101.8584,37011.7,3.39109
20876,101.941,37041,3.39453
20893,102.024,37084.6,3.39872
20910,102.107,37108.2,3.40015
20927,102.19,37138.8,3.40298
20944,102.273,37163.6,3.40523
20961,102.356,37183.5,3.408
20978,102.439,37218.6,3.41182
20995,102.522,37234.1,3.41353
21012,102.605,37265.1,3.41798
21029,102.688,37302.7,3.41786
21046,102.771,37319.3,3.42145
21063,102.854,37351.3,3.42357
21080,102.9375,37369.5,3.42781
21097,103.021,37409.7,3.43111
21114,103.104,37436.6,3.43428
21131,103.187,37448.5,3.43662
21148,103.27,37497.4,3.43851
21165,103.353,37501.6,3.44225
21182,103.436,37551.6,3.44517
21199,103.519,37566.7,3.44622
21216,103.602,37610.5,3.450881
21233,103.685,37632.1,3.45322
21250,103.768,37625.7,3.45486
21267,103.851,37677.4,3.45907
21284,103.934,37695.5,3.46043
21301,104.0166,37741.6,3.46475
21318,104.1,37758.5,3.46606
21335,104.183,37782.9,3.46895
21352,104.266,37815.3,3.47156
21369,104.349,37826.7,3.47445
21386,104.432,37869,3.47831
21403,104.515,37900,3.48061
21420,104.598,37923,3.48387
21437,104.681,37955,3.48661
21454,104.764,37968.9,3.48873
21471,104.847,38000.9,3.49174
21488,104.93,38027.3,3.49393
21505,105.0127,38059.7,3.49761
21522,105.0957,38080.2,3.49988
21539,105.179,38099.6,3.5022
21556,105.262,38136,3.50562
21573,105.345,38144,3.50725
21590,105.428,38197,3.5106
21607,105.511,38225.6,3.51449
21624,105.594,38246.6,3.51601
21641,105.677,38270.6,3.51819
21658,105.76,38280.3,3.5221
21675,105.843,38323.7,3.52553
21692,105.926,38349.4,3.52698
21709,106.009,38376,3.52981
21726,106.0918,38408.1,3.53285
21743,106.1748,38425.2,3.53582
21760,106.258,38447.5,3.53922
21777,106.341,38471.4,3.5405
21794,106.424,38520.7,3.54538
21811,106.507,38538.3,3.54785
21828,106.59,38568.7,3.54851
21845,106.673,38585,3.55265
21862,106.756,38591.5,3.55407
21879,106.839,38649.3,3.55936
21896,106.922,38665.4,3.56074
21913,107.005,38702.6,3.563
21930,107.088,38734.3,3.56762
21947,107.1709,38743.7,3.56896
21964,107.254,38783.4,3.57161
21981,107.337,38800.5,3.57448
21998,107.42,38837.3,3.57841
22015,107.503,38863.1,3.58174
22032,107.586,38888.1,3.5836
22049,107.669,38913.6,3.58574
22066,107.752,38911.9,3.58768
22083,107.835,38961.2,3.59153
22100,107.918,38984.9,3.59326
22117,108.001,39014.1,3.59581
22134,108.084,39046.3,3.60062
22151,108.167,39068.5,3.60271
22168,108.25,39086.9,3.60509
22185,108.333,39113.8,3.607682
22202,108.416,39157.3,3.61092
22219,108.499,39176,3.61318
22236,108.582,39201,3.61536
22253,108.665,39226.8,3.61804
22270,108.748,39249,3.62213
22287,108.831,39266.9,3.62427
22304,108.914,39302.8,3.62686
22321,108.997,39328.5,3.62958
22338,109.08,39364.5,3.63369
22355,109.163,39369.5,3.63495
22372,109.246,39408.1,3.63907
22389,109.3291,39439.7,3.64203
22406,109.412,39457.2,3.64519
22423,109.495,39494.3,3.64679
22440,109.578,39515.7,3.64979
22457,109.661,39536.6,3.65077
22474,109.744,39555.9,3.65372
22491,109.827,39594.3,3.65789
22508,109.91,39617.4,3.65982
22525,109.993,39638.9,3.66343
22542,110.076,39677.9,3.6662
22559,110.159,39691.6,3.667244
22576,110.242,39727.3,3.67245
22593,110.3252,39746.8,3.673507
22610,110.4082,39782.9,3.67697
22627,110.491,39799.7,3.68077
22644,110.574,39831.6,3.68262
22661,110.657,39860.8,3.68526
22678,110.74,39868.5,3.68653
22695,110.823,39910.7,3.69081
22712,110.906,39935.6,3.69406
22729,110.989,39956.9,3.6956
22746,111.072,39986.1,3.69921
22763,111.155,39983.8,3.70072
22780,111.238,40031.8,3.70461
22797,111.321,40061.8,3.70799
22814,111.4043,40076.6,3.7096
22831,111.4873,40105.2,3.71331
22848,111.57,40126.8,3.71543
22865,111.653,40161.9,3.718282
22882,111.736,40180.6,3.72048
22899,111.819,40207.6,3.72386
22916,111.902,40239.6,3.72706
22933,111.985,40254.9,3.72896
22950,112.068,40285.3,3.731432
22967,112.151,40309.9,3.73549
22984,112.234,40341.6,3.73745
23001,112.317,40366.4,3.74136
23018,112.4,40385.3,3.74294
23035,112.4834,40428.6,3.74623
23052,112.566,40436.8,3.7489
23069,112.649,40459.9,3.75279
23086,112.732,40484,3.75369
23103,112.815,40528.8,3.75753
23120,112.898,40542.5,3.76155
23137,112.981,40562.6,3.76271
23154,113.064,40591.7,3.76453
23171,113.147,40613.5,3.76789
23188,113.23,40649,3.7721
23205,113.313,40668.2,3.77324
23222,113.396,40700.4,3.77627
23239,113.479,40710.9,3.77936
23256,113.5625,40732.5,3.78259
23273,113.646,40765.6,3.78628
23290,113.729,40794.4,3.78817
23307,113.812,40816.5,3.78978
23324,113.895,40853.1,3.79386
23341,113.978,40866.6,3.79668
23358,114.061,40902.6,3.79853
23375,114.144,40910.7,3.800261
23392,114.227,40943.1,3.80583
23409,114.31,40973.6,3.80656
23426,114.393,40996.4,3.80936
23443,114.476,41027.5,3.81244
23460,114.559,41032.6,3.8153
23477,114.6416,41080.2,3.81875
23494,114.725,41098.7,3.82056
23511,114.808,41124,3.8245
23528,114.891,41151.4,3.82722
23545,114.974,41170.1,3.8279
23562,115.057,41192.8,3.83317
23579,115.14,41203.2,3.83555
23596,115.223,41241.2,3.83931
23613,115.306,41268.7,3.84084
23630,115.389,41293.4,3.84322
23647,115.472,41316.8,3.84781
23664,115.555,41341,3.84941
23681,115.6377,41377.8,3.851789
23698,115.7207,41391.6,3.85458
23715,115.804,41409.9,3.857
23732,115.887,41446.6,3.85898
23749,115.97,41450.7,3.86072
23766,116.053,41495.2,3.86517
23783,116.136,41519,3.86806
23800,116.219,41549.4,3.87103
23817,116.302,41586.8,3.87394
23834,116.385,41592.1,3.87468
23851,116.468,41631.4,3.87974
23868,116.551,41644.2,3.88207
23885,116.634,41671.6,3.883347
23902,116.7168,41698.1,3.88638
23919,116.7998,41720.9,3.89061
23936,116.883,41753.2,3.89217
23953,116.966,41780,3.89563
23970,117.049,41801.2,3.8996
23987,117.132,41820.2,3.90122
24004,117.215,38823.8,3.90415
24005,117.22,7115.35,4.0356