File: ASM109_2021_data/MTS/UD/MTS_UD_12.csv
,Time [s],Load [N],Displacement [mm]
0,0.0078125,-242.486,-0.000259854
14,0.0761719,-229.457,0.00166576
28,0.144531,-229.784,0.00603753
42,0.212891,-214.273,0.00746394
56,0.28125,-214.616,0.00816567
70,0.349609,-197.304,0.0109264
84,0.417969,-165.176,0.0135748
98,0.486328,-146.701,0.0144722
112,0.5546875,-126.106,0.01793
126,0.623047,-100.547,0.019869
140,0.691406,-70.1294,0.0215808
154,0.759766,-51.0326,0.0257644
168,0.828125,-38.599,0.0263383
182,0.896484,-6.42485,0.0280297
196,0.964844,12.5244,0.0318409
210,1.0332,45.9575,0.0341895
224,1.10156,56.8473,0.035669
238,1.16992,75.3502,0.037275
252,1.23828,99.4964,0.0417222
266,1.30664,132.658,0.04311651
280,1.375,159.587,0.0442864
294,1.44336,180.457,0.0474457
308,1.51172,203.286,0.0501886
322,1.58008,205.026,0.0505951
336,1.64844,244.883,0.0535131
350,1.7168,282.584,0.05641558
364,1.78516,294.958,0.0579428
378,1.85352,318.071,0.06162221
392,1.921875,347.088,0.0624631
406,1.99023,368.23,0.0628868
420,2.05859,395.838,0.0673299
434,2.12695,428.066,0.0697907
448,2.19531,437.922,0.07188306
462,2.26367,475.049,0.0729939
476,2.33203,503.206,0.0769466
490,2.40039,521.056,0.0793011
504,2.46875,532.53,0.0809012
518,2.53711,575.547,0.0827667
532,2.60547,604.368,0.0861981
546,2.67383,614.225,0.0873826
560,2.74219,643.829,0.08981356
574,2.81055,662.309,0.0914122
588,2.87891,682.094,0.0939255
602,2.94727,708.45,0.0969895
616,3.015625,741.659,0.0996914
630,3.08398,759.758,0.10025
644,3.15234,787.699,0.104159
658,3.2207,815.539,0.106305
672,3.28906,834.455,0.108575
686,3.35742,856.626,0.110291
700,3.42578,889.894,0.112795
714,3.49414,908.4,0.115804
728,3.5625,926.306,0.117039
742,3.63086,957.031,0.119307
756,3.69922,972.951,0.121195
770,3.76758,997.62,0.12266
784,3.83594,1033.49,0.126041
798,3.9043,1056.42,0.12908
812,3.97266,1071.38,0.131543
826,4.04102,1102.93,0.133996
840,4.109375,1122.4,0.136258
854,4.17773,1147.15,0.136689
868,4.24609,1178.29,0.1409781
882,4.31445,1201.62,0.142582
896,4.38281,1220.67,0.143479
910,4.45117,1251.09,0.146602
924,4.51953,1269.62,0.149375
938,4.58789,1299.95,0.151899
952,4.65625,1315.54,0.153803
966,4.72461,1352.38,0.155877
980,4.79297,1360.09,0.15772
994,4.86133,1381.33,0.160434
1008,4.92969,1402.16,0.161852
1022,4.99805,1423.84,0.163798
1036,5.06641,1444.55,0.165603
1050,5.13477,1497,0.169613
1064,5.203125,1503.42,0.172236
1078,5.27148,1519.84,0.173022
1092,5.33984,1553.12,0.176793
1106,5.4082,1580.07,0.178845
1120,5.47656,1587.32,0.181287
1134,5.54492,1632.83,0.184214
1148,5.61328,1658.15,0.185651
1162,5.68164,1672.21,0.186691
1176,5.75,1691.36,0.1904806
1190,5.81836,1733.49,0.192621
1204,5.88672,1725.85,0.192974
1218,5.95508,1777.5,0.19701
1232,6.02344,1801.28,0.199038
1246,6.0918,1826.79,0.202262
1260,6.16016,1836.36,0.202618
1274,6.22852,1884.83,0.20504
1288,6.296875,1887.21,0.206859
1302,6.36523,1917.87,0.210326
1316,6.43359,1953.59,0.212664
1330,6.50195,1962.98,0.213966
1344,6.57031,1988.2,0.215909
1358,6.63867,2012.23,0.219902
1372,6.70703,2047.24,0.22145
1386,6.77539,2050.7,0.223487
1400,6.84375,2089.69,0.226783
1414,6.91211,2120.86,0.228604
1428,6.98047,2123.98,0.230256
1442,7.04883,2173.38,0.232638
1456,7.11719,2190.28,0.23549
1470,7.18555,2208.05,0.236978
1484,7.25391,2218.78,0.2389908
1498,7.32227,2260.99,0.240482
1512,7.390625,2281.33,0.242753
1526,7.45898,2300.51,0.246505
1540,7.52734,2332.79,0.249762
1554,7.5957,2350.36,0.2510657
1568,7.66406,2369.1,0.253373
1582,7.73242,2398.99,0.255285
1596,7.80078,2427.37,0.257107
1610,7.86914,2464.58,0.261264
1624,7.9375,2479.27,0.263192
1638,8.00586,2503.37,0.264846
1652,8.07422,2509.84,0.266335
1666,8.14258,2547.93,0.268733
1680,8.21094,2564.72,0.271185
1694,8.2793,2576.81,0.273553
1708,8.34766,2617.27,0.278094
1722,8.41602,2630.57,0.27792
1736,8.484375,2664.11,0.281289
1750,8.55273,2689.88,0.282894
1764,8.62109,2722.17,0.285976
1778,8.68945,2743.91,0.287697
1792,8.75781,2761.51,0.290448
1806,8.82617,2802.18,0.292483
1820,8.89453,2815.81,0.295351
1834,8.96289,2830.88,0.297112
1848,9.03125,2860.05,0.299922
1862,9.09961,2874.35,0.301465
1876,9.16797,2892.79,0.3027086
1890,9.23633,2927.68,0.3053546
1904,9.30469,2958.2,0.308843
1918,9.37305,2972.74,0.310321
1932,9.44141,3006.95,0.311834
1946,9.50977,3022.31,0.314426
1960,9.578125,3046.61,0.316156
1974,9.64648,3090.07,0.319558
1988,9.71484,3101.64,0.322339
2002,9.7832,3127.34,0.32429
2016,9.85156,3148.47,0.326841
2030,9.91992,3173.84,0.328381
2044,9.98828,3191.48,0.330284
2058,10.0566,3217.41,0.332968
2072,10.125,3241.73,0.335783
2086,10.1934,3257.71,0.335271
2100,10.2617,3283.83,0.339759
2114,10.3301,3319.75,0.342442
2128,10.3984,3331.18,0.345157
2142,10.4668,3362.32,0.346031
2156,10.5352,3391.15,0.349924
2170,10.6035,3399.73,0.351841
2184,10.6719,3424.34,0.35349
2198,10.7402,3457.36,0.355133
2212,10.8086,3475.28,0.358403
2226,10.877,3493.95,0.359606
2240,10.9453,3534.62,0.364367
2254,11.0137,3555.96,0.364836
2268,11.082,3559.47,0.367745
2282,11.1504,3597.19,0.369666
2296,11.21875,3613.9,0.371864
2310,11.2871,3655.68,0.375449
2324,11.3555,3665.51,0.376901
2338,11.4238,3691.23,0.377735
2352,11.4922,3712.34,0.380648
2366,11.5605,3735.92,0.383584
2380,11.6289,3764.23,0.386612
2394,11.6973,3789.66,0.386908
2408,11.7656,3805.43,0.391443
2422,11.834,3839.81,0.392507
2436,11.9023,3863.25,0.395871
2450,11.9707,3870.81,0.397274
2464,12.0391,3893.38,0.399811
2478,12.1074,3934.9,0.401028
2492,12.1758,3945.09,0.403708
2506,12.2441,3978.53,0.406931
2520,12.3125,4001.98,0.40828
2534,12.3809,3991.5,0.409918
2548,12.4492,4038.17,0.412529
2562,12.5176,4086.84,0.415892
2576,12.5859,4083.82,0.418326
2590,12.6543,4122.73,0.419681
2604,12.7227,4137.51,0.422439
2618,12.791,4144.81,0.424388
2632,12.8594,4174.9,0.426884
2646,12.9277,4207.49,0.42623
2660,12.9961,4229.01,0.431132
2674,13.0645,4261,0.432873
2688,13.1328,4281.17,0.435249
2702,13.2012,4315.41,0.437008
2716,13.2695,4333.45,0.440227
2730,13.3379,4359.95,0.44176
2744,13.40625,4377.07,0.443371
2758,13.4746,4406.64,0.446689
2772,13.543,4414.02,0.448395
2786,13.6113,4445.01,0.451969
2800,13.6797,4465.73,0.453272
2814,13.748,4489.5,0.456128
2828,13.8164,4523.42,0.459052
2842,13.8848,4544.97,0.459947
2856,13.9531,4565.65,0.461455
2870,14.0215,4604.51,0.465854
2884,14.0898,4604.59,0.467054
2898,14.1582,4646.91,0.468854
2912,14.2266,4663.35,0.47319
2926,14.2949,4679.18,0.47283
2940,14.3633,4711.22,0.476274
2954,14.4316,4752.13,0.479516
2968,14.5,4762.7,0.480979
2982,14.5684,4784.53,0.483417
2996,14.6367,4813,0.485513
3010,14.7051,4843.5,0.487699
3024,14.7734,4847.09,0.490409
3038,14.8418,4880.19,0.491821
3052,14.9102,4884.53,0.496104
3066,14.9785,4921.35,0.496896
3080,15.0469,4950.19,0.500726
3094,15.1152,4979.71,0.5014385
3108,15.1836,4993.32,0.502898
3122,15.252,5022.48,0.5057897
3136,15.3203,5056.17,0.5079245
3150,15.3887,5062.27,0.510162
3164,15.457,5090.78,0.512302
3178,15.5254,5125.16,0.515461
3192,15.59375,5138.51,0.517495
3206,15.6621,5177.68,0.520076
3220,15.7305,5196.35,0.520986
3234,15.7988,5217.49,0.524902
3248,15.8672,5245.31,0.526017
3262,15.9355,5262.86,0.528625
3276,16.0039,5279.3,0.531211
3290,16.0723,5308.01,0.533085
3304,16.1406,5338.3,0.537253
3318,16.209,5369.75,0.538656
3332,16.2773,5366.08,0.541536
3346,16.3457,5409.6,0.543405
3360,16.4141,5412.31,0.54511
3374,16.4824,5452,0.54551
3388,16.5508,5477.11,0.549968
3402,16.6191,5513.75,0.554332
3416,16.6875,5502.67,0.553234
3430,16.7559,5551.02,0.556446
3444,16.8242,5560.49,0.559896
3458,16.8926,5591.89,0.560393
3472,16.9609,5601.77,0.562662
3486,17.0293,5645.98,0.566146
3500,17.0977,5665.64,0.568077
3514,17.166,5688.88,0.5707559
3528,17.2344,5712.03,0.572604
3542,17.3027,5737.55,0.57377
3556,17.3711,5743.44,0.578502
3570,17.4395,5784.16,0.580123
3584,17.5078,5808.3,0.582405
3598,17.5762,5819.87,0.5828492
3612,17.6445,5847.03,0.586306
3626,17.7129,5873.87,0.587417
3640,17.78125,5893.82,0.58959
3654,17.8496,5917.84,0.593099
3668,17.918,5944.7,0.59579
3682,17.9863,5969.12,0.599109
3696,18.0547,6000.53,0.602161
3710,18.123,6021.13,0.601807
3724,18.1914,6033.68,0.603863
3738,18.2598,6067.96,0.605878
3752,18.3281,6093.77,0.609548
3766,18.3965,6118.02,0.612417
3780,18.4648,6118.46,0.6130535
3794,18.5332,6168.35,0.617121
3808,18.6016,6182.2,0.619378
3822,18.6699,6196.59,0.620394
3836,18.7383,6226.74,0.623526
3850,18.8066,6253.97,0.624401
3864,18.875,6259.51,0.6263141
3878,18.9434,6305.27,0.628957
3892,19.0117,6322.53,0.6323905
3906,19.0801,6347.91,0.634115
3920,19.1484,6367.57,0.636127
3934,19.2168,6396.04,0.6378389
3948,19.2852,6406.6,0.641749
3962,19.3535,6443.45,0.64222
3976,19.4219,6459.76,0.645461
3990,19.4902,6481.09,0.64685
4004,19.5586,6493.35,0.649801
4018,19.627,6529.4,0.651978
4032,19.6953,6564.15,0.656562
4046,19.7637,6575.93,0.657104
4060,19.832,6592.95,0.660896
4074,19.9004,6629.05,0.660928
4088,19.96875,6643.25,0.664
4102,20.0371,6681.29,0.666477
4116,20.1055,6693.69,0.668969
4130,20.1738,6704.74,0.670425
4144,20.2422,6732.45,0.672624
4158,20.3105,6765.38,0.675634
4172,20.3789,6765.61,0.6772334
4186,20.4473,6820.39,0.679422
4200,20.5156,6830.44,0.681581
4214,20.584,6859.79,0.684136
4228,20.6523,6872.66,0.686853
4242,20.7207,6903.95,0.687757
4256,20.7891,6927.74,0.690812
4270,20.8574,6932.34,0.691219
4284,20.9258,6970.02,0.695468
4298,20.9941,6993.94,0.696922
4312,21.0625,7009.69,0.699615
4326,21.1309,7042.5,0.701806
4340,21.1992,7064.38,0.703626
4354,21.2676,7074.09,0.705564
4368,21.3359,7103.87,0.708593
4382,21.4043,7140.52,0.711594
4396,21.4727,7156.76,0.715097
4410,21.541,7178.42,0.716254
4424,21.6094,7196.67,0.7177
4438,21.6777,7222.4,0.719418
4452,21.7461,7248.06,0.723085
4466,21.8145,7271.23,0.724634
4480,21.8828,7280.51,0.726997
4494,21.9512,7321.75,0.72998
4508,22.0195,7342.12,0.733242
4522,22.0879,7371.77,0.734316
4536,22.15625,7381.44,0.736285
4550,22.2246,7422.06,0.739963
4564,22.293,7429.99,0.740488
4578,22.3613,7461.52,0.743802
4592,22.4297,7476.69,0.745498
4606,22.498,7507.3,0.747532
4620,22.5664,7524.51,0.750604
4634,22.6348,7555.79,0.751938
4648,22.7031,7577.06,0.75388
4662,22.7715,7575.45,0.754938
4676,22.8398,7621.24,0.760334
4690,22.9082,7658.9,0.760147
4704,22.9766,7655.78,0.764231
4718,23.0449,7688.34,0.766371
4732,23.1133,7710.95,0.769023
4746,23.1816,7733.65,0.7692
4760,23.25,7755.02,0.773155
4774,23.3184,7785.2,0.776227
4788,23.3867,7804.24,0.776176
4802,23.4551,7841.32,0.7808969
4816,23.5234,7851.19,0.781923
4830,23.5918,7889.5,0.784574
4844,23.6602,7895.87,0.785912
4858,23.7285,7930.25,0.789089
4872,23.7969,7949.3,0.790792
4886,23.8652,7972.38,0.792407
4900,23.9336,7988.46,0.794699
4914,24.002,8017.8,0.797539
4928,24.0703,8028.62,0.8008104
4942,24.1387,8068.25,0.801615
4956,24.207,8081.28,0.80459
4970,24.2754,8117.15,0.806932
4984,24.34375,8146.18,0.810675
4998,24.4121,8156.75,0.812342
5012,24.4805,8185.81,0.813547
5026,24.5488,8212.7,0.817718
5040,24.6172,8218.19,0.818828
5054,24.6855,8250.1,0.821011
5068,24.7539,8259.8,0.824273
5082,24.8223,8298.3,0.825503
5096,24.8906,8319.25,0.826866
5110,24.959,8349.04,0.830036
5124,25.0273,8372.19,0.834106
5138,25.0957,8392.91,0.8350457
5152,25.1641,8404.4,0.837169
5166,25.2324,8445.44,0.839374
5180,25.3008,8459.66,0.8418048
5194,25.3691,8476.34,0.843609
5208,25.4375,8517.35,0.84726
5222,25.5059,8532.86,0.847151
5236,25.5742,8539.68,0.84981
5250,25.6426,8589.27,0.853915
5264,25.7109,8594.5,0.854976
5278,25.7793,8626.03,0.857352
5292,25.8477,8637.66,0.860906
5306,25.916,8665.12,0.859852
5320,25.9844,8691.28,0.86524
5334,26.0527,8718.31,0.866446
5348,26.1211,8733.22,0.869758
5362,26.1895,8764.67,0.870362
5376,26.2578,8778.3,0.872959
5390,26.3262,8817.08,0.875453
5404,26.3945,8820.99,0.878178
5418,26.4629,8859.97,0.88101
5432,26.53125,8875.15,0.8819021
5446,26.5996,8903.91,0.885709
5460,26.668,8919.08,0.886511
5474,26.7363,8945.53,0.889551
5488,26.8047,8968.71,0.891606
5502,26.873,8989.32,0.894086
5516,26.9414,9014.15,0.896193
5530,27.0098,9042.5,0.899505
5544,27.0781,9049.1,0.90077
5558,27.1465,9088.83,0.902691
5572,27.2148,9107.23,0.906073
5586,27.2832,9134.13,0.906662
5600,27.3516,9144.97,0.909799
5614,27.4199,9188.61,0.912477
5628,27.4883,9187.69,0.913481
5642,27.5566,9221.89,0.916979
5656,27.625,9247.97,0.919593
5670,27.6934,9263.51,0.921665
5684,27.7617,9284.22,0.92485
5698,27.8301,9320.72,0.92421
5712,27.8984,9337.95,0.928816
5726,27.9668,9363.6,0.931003
5740,28.0352,9388.7,0.932312
5754,28.1035,9417.48,0.93565
5768,28.1719,9418.72,0.936804
5782,28.2402,9457.32,0.940161
5796,28.3086,9474.8,0.9428553
5810,28.377,9485.12,0.942908
5824,28.4453,9513.84,0.947463
5838,28.5137,9548.41,0.948291
5852,28.582,9553.83,0.9509114
5866,28.6504,9598,0.954185
5880,28.71875,9604.23,0.955249
5894,28.7871,9636.44,0.955463
5908,28.8555,9656.48,0.960391
5922,28.9238,9691.3,0.962647
5936,28.9922,9696.35,0.963837
5950,29.0605,9719.85,0.965813
5964,29.1289,9751.14,0.969057
5978,29.1973,9777.7,0.970716
5992,29.2656,9790.09,0.973848
6006,29.334,9825.76,0.976885
6020,29.4023,9843.91,0.977724
6034,29.4707,9871.22,0.980437
6048,29.5391,9873.53,0.983694
6062,29.6074,9920.87,0.985743
6076,29.6758,9939.26,0.9876
6090,29.7441,9964.27,0.989484
6104,29.8125,9990.56,0.992559
6118,29.8809,10011.3,0.9946093
6132,29.9492,10028.4,0.997756
6146,30.0176,10059.7,0.9984073
6160,30.0859,10071.3,1.00072
6174,30.1543,10098.2,1.002875
6188,30.2227,10131.4,1.00637
6202,30.291,10152.9,1.00736
6216,30.3594,10168.3,1.01081
6230,30.4277,10195.1,1.01291
6244,30.4961,10211.5,1.01438
6258,30.5645,10236.4,1.01661
6272,30.6328,10258.4,1.02026
6286,30.7012,10285.1,1.02077
6300,30.7695,10296.6,1.02295
6314,30.8379,10334,1.02437
6328,30.90625,10358,1.029181
6342,30.9746,10373.2,1.03098
6356,31.043,10393,1.03282
6370,31.1113,10422.4,1.03414
6384,31.1797,10429.8,1.03679
6398,31.248,10462.2,1.03922
6412,31.3164,10487.1,1.04205
6426,31.3848,10521.4,1.04324
6440,31.4531,10534.4,1.04764
6454,31.5215,10564.3,1.04712
6468,31.5898,10558.2,1.04918
6482,31.6582,10610.3,1.05285
6496,31.7266,10629.1,1.0555
6510,31.7949,10650.2,1.05662
6524,31.8633,10670,1.06018
6538,31.9316,10699.6,1.06234
6552,32.0,10710.8,1.06592
6566,32.0684,10744.5,1.06531
6580,32.1367,10771,1.06942
6594,32.2051,10785.9,1.07
6608,32.2734,10803.3,1.07422
6622,32.3418,10845.3,1.07532
6636,32.4102,10863.4,1.07823
6650,32.4785,10891.6,1.07914
6664,32.5469,10908,1.08121
6678,32.6152,10929.4,1.084641
6692,32.6836,10925.7,1.08796
6706,32.752,10976.9,1.08917
6720,32.8203,10993.7,1.09181
6734,32.8887,11028.5,1.09504
6748,32.957,11046.9,1.09749
6762,33.0254,11080.9,1.09928
6776,33.09375,11086.6,1.10052
6790,33.1621,11114.9,1.1021
6804,33.2305,11140.5,1.10589
6818,33.2988,11171.6,1.10581
6832,33.3672,11169.3,1.11089
6846,33.4355,11218.5,1.11168
6860,33.5039,11239,1.11564
6874,33.5723,11252.4,1.11615
6888,33.6406,11275,1.12029
6902,33.709,11302.3,1.12125
6916,33.7773,11298.1,1.12425
6930,33.8457,11348.4,1.12591
6944,33.9141,11364.3,1.12909
6958,33.9824,11387.6,1.13134
6972,34.0508,11425.4,1.13438
6986,34.1191,11446.2,1.13624
7000,34.1875,11443.6,1.13698
7014,34.2559,11483.5,1.14096
7028,34.3242,11507.3,1.14251
7042,34.3926,11535.1,1.144635
7056,34.4609,11533.3,1.14631
7070,34.5293,11582.9,1.14988
7084,34.5977,11597.8,1.15108
7098,34.666,11615.2,1.15292
7112,34.7344,11652.6,1.15539
7126,34.8027,11669.6,1.15847
7140,34.8711,11674.5,1.15955
7154,34.9395,11711.8,1.1639
7168,35.0078,11733.9,1.16497
7182,35.0762,11758.4,1.16827
7196,35.1445,11776.7,1.17025
7210,35.2129,11817.3,1.17171
7224,35.28125,11814.8,1.17262
7238,35.3496,11859.4,1.17737
7252,35.418,11870.3,1.1783
7266,35.4863,11895,1.1805
7280,35.5547,11906.2,1.18423
7294,35.623,11936.3,1.1858
7308,35.6914,11960.1,1.18711
7322,35.7598,11990.9,1.19054
7336,35.8281,12016.5,1.19211
7350,35.8965,12042.3,1.19357
7364,35.9648,12045.8,1.19656
7378,36.0332,12078.4,1.20001
7392,36.1016,12104.3,1.20066
7406,36.1699,12117.6,1.20385
7420,36.2383,12147.2,1.20619
7434,36.3066,12176.1,1.20833
7448,36.375,12175.9,1.20949
7462,36.4434,12226.5,1.21322
7476,36.5117,12230.2,1.21562
7490,36.5801,12265.1,1.21717
7504,36.6484,12278.7,1.21995
7518,36.7168,12309,1.22235
7532,36.7852,12318,1.22272
7546,36.8535,12361.8,1.22555
7560,36.9219,12374.1,1.23024
7574,36.9902,12387.5,1.22997
7588,37.0586,12418.3,1.23371
7602,37.127,12438,1.2359
7616,37.1953,12453.7,1.23809
7630,37.2637,12481.4,1.24015
7644,37.332,12516.3,1.24268
7658,37.4004,12537.2,1.24336
7672,37.46875,12550.5,1.24661
7686,37.5371,12579.9,1.24891
7700,37.6055,12597.2,1.25288
7714,37.6738,12627.9,1.25312
7728,37.7422,12632.3,1.25621
7742,37.8105,12673.1,1.25784
7756,37.8789,12676.3,1.26041
7770,37.9473,12722.2,1.26172
7784,38.0156,12732.8,1.2655
7798,38.084,12757.8,1.26585
7812,38.1523,12779.7,1.26909
7826,38.2207,12813.4,1.272678
7840,38.2891,12831.5,1.27413
7854,38.3574,12855.1,1.27629
7868,38.4258,12869.1,1.27811
7882,38.4941,12905,1.28063
7896,38.5625,12905.3,1.28279
7910,38.6309,12955.9,1.28712
7924,38.6992,12963.8,1.28835
7938,38.7676,12991.2,1.28995
7952,38.8359,13012,1.29269
7966,38.9043,13029.4,1.29441
7980,38.9727,13040.5,1.29622
7994,39.041,13086.1,1.29921
8008,39.1094,13102.5,1.30225
8022,39.1777,13112.4,1.30299
8036,39.2461,13151,1.30606
8050,39.3145,13170.4,1.307649
8064,39.3828,13171.1,1.30986
8078,39.4512,13222.5,1.31222
8092,39.5195,13240.8,1.31522
8106,39.5879,13259.1,1.3171
8120,39.65625,13281.2,1.31994
8134,39.7246,13321.5,1.32307
8148,39.793,13336.5,1.32331
8162,39.8613,13353.4,1.32731
8176,39.9297,13377.6,1.32987
8190,39.998,13398,1.32996
8204,40.0664,13426,1.33366
8218,40.1348,13464.4,1.33615
8232,40.2031,13471.2,1.33746
8246,40.2715,13492.9,1.33905
8260,40.3398,13515.6,1.34365
8274,40.4082,13547.1,1.34459
8288,40.4766,13554,1.3477
8302,40.5449,13584,1.34894
8316,40.6133,13601.3,1.35054
8330,40.6816,13618.3,1.35195
8344,40.75,13646.6,1.35563
8358,40.8184,13683.5,1.35958
8372,40.8867,13694.7,1.36175
8386,40.9551,13709.9,1.36118
8400,41.0234,13750.5,1.36609
8414,41.0918,13770.9,1.36525
8428,41.1602,13786.4,1.37105
8442,41.2285,13817.9,1.37227
8456,41.2969,13835.3,1.37257
8470,41.3652,13851.9,1.37785
8484,41.4336,13885.2,1.38043
8498,41.502,13916.2,1.38152
8512,41.5703,13924.7,1.38367
8526,41.6387,13951.4,1.38546
8540,41.707,13975.5,1.38762
8554,41.7754,13992.4,1.38952
8568,41.84375,14019.5,1.39391
8582,41.9121,14050.7,1.39496
8596,41.9805,14048.9,1.39684
8610,42.0488,14082.5,1.39848
8624,42.1172,14097.2,1.40184
8638,42.1855,14138.1,1.402876
8652,42.2539,14136.4,1.406865
8666,42.3223,14171,1.40711
8680,42.3906,14195.8,1.41182
8694,42.459,14206.2,1.41208
8708,42.5273,14256.6,1.41573
8722,42.5957,14263.3,1.41623
8736,42.6641,14291.2,1.42064
8750,42.7324,14322,1.42263
8764,42.8008,14339.4,1.42504
8778,42.8691,14359.2,1.42738
8792,42.9375,14392.3,1.43128
8806,43.0059,14413.6,1.43276
8820,43.0742,14408.9,1.43397
8834,43.1426,14457.5,1.43684
8848,43.2109,14474.4,1.43746
8862,43.2793,14499.4,1.440161
8876,43.3477,14514.9,1.44399
8890,43.416,14539.8,1.44448
8904,43.4844,14560.5,1.44748
8918,43.5527,14580.4,1.4494
8932,43.6211,14602.5,1.4521
8946,43.6895,14633.8,1.45369
8960,43.7578,14649.8,1.45552
8974,43.8262,14683.5,1.45743
8988,43.8945,14698.1,1.46084
9002,43.9629,14715.3,1.46365
9016,44.03125,14747.4,1.46581
9030,44.0996,14772.3,1.46874
9044,44.168,14769.6,1.4687
9058,44.2363,14816.2,1.4716
9072,44.3047,14842.5,1.47552
9086,44.373,14861.3,1.4767
9100,44.4414,14871.6,1.4789
9114,44.5098,14916.7,1.48194
9128,44.5781,14915.9,1.48323
9142,44.6465,14953.4,1.48694
9156,44.7148,14977.6,1.48918
9170,44.7832,14990.4,1.48988
9184,44.8516,15026.4,1.493039
9198,44.9199,15058.2,1.49612
9212,44.9883,15066.6,1.4979
9226,45.0566,15098.2,1.500306
9240,45.125,15112.9,1.50096
9254,45.1934,15141,1.50512
9268,45.2617,15150.6,1.508
9282,45.3301,15185,1.50782
9296,45.3984,15204.1,1.51115
9310,45.4668,15221.6,1.51305
9324,45.5352,15249.2,1.51697
9338,45.6035,15273.7,1.51809
9352,45.6719,15290.6,1.52247
9366,45.7402,15308,1.52259
9380,45.8086,15324.1,1.52507
9394,45.877,15353.2,1.52541
9408,45.9453,15381,1.53036
9422,46.0137,15415.3,1.53289
9436,46.082,15430.2,1.53354
9450,46.1504,15460.2,1.53675
9464,46.21875,15482.6,1.53804
9478,46.2871,15480,1.5395
9492,46.3555,15517.8,1.54389
9506,46.4238,15550.5,1.54559
9520,46.4922,15576.1,1.54801
9534,46.5605,15589.6,1.54985
9548,46.6289,15591.4,1.55322
9562,46.6973,15631.3,1.55522
9576,46.7656,15640.2,1.5571
9590,46.834,15682.7,1.55954
9604,46.9023,15700.6,1.56068
9618,46.9707,15722.6,1.56367
9632,47.0391,15744.5,1.56588
9646,47.1074,15764.9,1.56764
9660,47.1758,15785.7,1.56973
9674,47.2441,15819.7,1.57306
9688,47.3125,15838.5,1.5751
9702,47.3809,15862.6,1.57726
9716,47.4492,15873.9,1.58046
9730,47.5176,15914.2,1.58115
9744,47.5859,15920.8,1.58376
9758,47.6543,15950.7,1.58601
9772,47.7227,15983.8,1.58813
9786,47.791,15995.6,1.59013
9800,47.8594,16016.5,1.59315
9814,47.9277,16044.2,1.595493
9828,47.9961,16066.7,1.59925
9842,48.0645,16079.9,1.59901
9856,48.1328,16110.3,1.60357
9870,48.2012,16137.2,1.6035
9884,48.2695,16149.1,1.60794
9898,48.3379,16165.9,1.60945
9912,48.40625,16202.4,1.61269
9926,48.4746,16206.9,1.61293
9940,48.543,16246.5,1.61641
9954,48.6113,16261.2,1.61843
9968,48.6797,16265.5,1.6205
9982,48.748,16312.8,1.6234
9996,48.8164,16335.2,1.62551
10010,48.8848,16356.8,1.62822
10024,48.9531,16373.6,1.63054
10038,49.0215,16405.9,1.63255
10052,49.0898,16426.4,1.63463
10066,49.1582,16454.4,1.63725
10080,49.2266,16469,1.63885
10094,49.2949,16492.2,1.64157
10108,49.3633,16509.4,1.64472
10122,49.4316,16548.7,1.64558
10136,49.5,16562.9,1.64854
10150,49.5684,16585,1.6487
10164,49.6367,16606.5,1.65212
10178,49.7051,16629.2,1.65533
10192,49.7734,16651.5,1.65688
10206,49.8418,16684.3,1.6592
10220,49.9102,16701.3,1.66249
10234,49.9785,16706.2,1.66286
10248,50.0469,16740.5,1.66561
10262,50.1152,16769.2,1.66829
10276,50.1836,16774.3,1.67102
10290,50.252,16798.5,1.67095
10304,50.3203,16826,1.67506
10318,50.3887,16849.8,1.6765
10332,50.457,16874.6,1.68064
10346,50.5254,16900,1.68291
10360,50.59375,16914.8,1.68491
10374,50.6621,16941.3,1.68688
10388,50.7305,16962.3,1.69034
10402,50.7988,16982.2,1.69151
10416,50.8672,17003.5,1.694775
10430,50.9355,17040,1.69725
10444,51.0039,17054.8,1.69796
10458,51.0723,17066.9,1.7006
10472,51.1406,17092.7,1.70358
10486,51.209,17125.2,1.70522
10500,51.2773,17138.5,1.70838
10514,51.3457,17177.4,1.7099
10528,51.4141,17195.2,1.71257
10542,51.4824,17200.5,1.71261
10556,51.5508,17238.9,1.71595
10570,51.6191,17258,1.7199
10584,51.6875,17269.9,1.72159
10598,51.7559,17302.4,1.72319
10612,51.8242,17319.4,1.72598
10626,51.8926,17353.7,1.72628
10640,51.9609,17360.3,1.72964
10654,52.0293,17397.6,1.73283
10668,52.0977,17405.1,1.73522
10682,52.166,17422.1,1.73644
10696,52.2344,17454.6,1.74032
10710,52.3027,17487.4,1.74169
10724,52.3711,17480.2,1.74469
10738,52.4395,17533.6,1.74587
10752,52.5078,17535.5,1.74745
10766,52.5762,17567,1.74889
10780,52.6445,17591.3,1.75393
10794,52.7129,17612.3,1.75418
10808,52.78125,17635.6,1.75738
10822,52.8496,17661.3,1.76028
10836,52.918,17683.8,1.76225
10850,52.9863,17697.3,1.76274
10864,53.0547,17728.5,1.76761
10878,53.123,17752.7,1.76901
10892,53.1914,17768.1,1.77054
10906,53.2598,17787.7,1.77225
10920,53.3281,17826.9,1.77706
10934,53.3965,17839.5,1.77718
10948,53.4648,17854.3,1.77994
10962,53.5332,17874.9,1.7825
10976,53.6016,17882.6,1.78573
10990,53.6699,17926.8,1.78721
11004,53.7383,17954.1,1.78984
11018,53.8066,17986,1.793
11032,53.875,17986.4,1.7938
11046,53.9434,18016.8,1.79627
11060,54.0117,18036.3,1.79828
11074,54.0801,18061.1,1.7991
11088,54.1484,18096.9,1.80353
11102,54.2168,18112.5,1.80516
11116,54.2852,18132.3,1.80727
11130,54.3535,18151.6,1.81055
11144,54.4219,18182.8,1.815335
11158,54.4902,18201.9,1.8136
11172,54.5586,18200.5,1.81677
11186,54.627,18241,1.81766
11200,54.6953,18272.5,1.82125
11214,54.7637,18293.3,1.82206
11228,54.832,18307.7,1.82529
11242,54.9004,18315.4,1.82743
11256,54.96875,18348.1,1.83129
11270,55.0371,18382.3,1.83327
11284,55.1055,18399.1,1.83554
11298,55.1738,18412.4,1.83622
11312,55.2422,18443.6,1.83931
11326,55.3105,18465.7,1.8409
11340,55.3789,18483.2,1.843275
11354,55.4473,18519.4,1.84588
11368,55.5156,18525.1,1.84853
11382,55.584,18558.5,1.84927
11396,55.6523,18580.6,1.85476
11410,55.7207,18612.7,1.856112
11424,55.7891,18623.5,1.85853
11438,55.8574,18649.6,1.85932
11452,55.9258,18656.7,1.86102
11466,55.9941,18687.4,1.8635
11480,56.0625,18699.2,1.86818
11494,56.1309,18729,1.86883
11508,56.1992,18747,1.87101
11522,56.2676,18774,1.87338
11536,56.3359,18795.8,1.87653
11550,56.4043,18831.8,1.87896
11564,56.4727,18833.7,1.88049
11578,56.541,18865.9,1.882742
11592,56.6094,18888.4,1.8854
11606,56.6777,18900.5,1.886897
11620,56.7461,18929.8,1.88982
11634,56.8145,18954.3,1.89321
11648,56.8828,18984.6,1.89412
11662,56.9512,18998.5,1.89618
11676,57.0195,19026.1,1.8987
11690,57.0879,19054.7,1.90154
11704,57.15625,19072.6,1.90283
11718,57.2246,19095.3,1.90503
11732,57.293,19106.5,1.90851
11746,57.3613,19132.8,1.90944
11760,57.4297,19149.6,1.911687
11774,57.498,19179.2,1.91334
11788,57.5664,19199.8,1.91908
11802,57.6348,19225.5,1.91854
11816,57.7031,19254.8,1.92052
11830,57.7715,19259.8,1.92335
11844,57.8398,19284.2,1.92623
11858,57.9082,19319.4,1.92792
11872,57.9766,19338.2,1.93033
11886,58.0449,19368.6,1.93219
11900,58.1133,19386.7,1.9355
11914,58.1816,19403.7,1.937113
11928,58.25,19438.4,1.93911
11942,58.3184,19459.4,1.94119
11956,58.3867,19476.7,1.94423
11970,58.4551,19506.5,1.94708
11984,58.5234,19525.3,1.949734
11998,58.5918,19540.3,1.95034
12012,58.6602,19566.9,1.9531
12026,58.7285,19598.8,1.95593
12040,58.7969,19612.6,1.95871
12054,58.8652,19633.6,1.9595
12068,58.9336,19645.2,1.96244
12082,59.002,19676.5,1.96458
12096,59.0703,19688.4,1.96651
12110,59.1387,19729.7,1.97042
12124,59.207,19746.8,1.97329
12138,59.2754,19752.5,1.97364
12152,59.34375,19789.8,1.97671
12166,59.4121,19815.4,1.97922
12180,59.4805,19813.8,1.98054
12194,59.5488,19859.7,1.98251
12208,59.6172,19869.9,1.98536
12222,59.6855,19893.6,1.98751
12236,59.7539,19928.4,1.99052
12250,59.8223,19946.6,1.99227
12264,59.8906,19963.1,1.994
12278,59.959,19988.3,1.99665
12292,60.0273,20015.3,1.99853
12306,60.0957,20033.7,2.00103
12320,60.1641,20037.8,2.0028
12334,60.2324,20080.5,2.00595
12348,60.3008,20090.7,2.00789
12362,60.3691,20109.9,2.00927
12376,60.4375,20144.5,2.0129
12390,60.5059,20180.5,2.01529
12404,60.5742,20186.2,2.01713
12418,60.6426,20220.4,2.01887
12432,60.7109,20248.5,2.02218
12446,60.7793,20259.9,2.02436
12460,60.8477,20272.7,2.02635
12474,60.916,20294.4,2.02826
12488,60.9844,20318.9,2.03086
12502,61.0527,20342.2,2.03367
12516,61.1211,20357.2,2.03396
12530,61.1895,20403.3,2.03841
12544,61.2578,20415.4,2.04166
12558,61.3262,20439.9,2.04236
12572,61.3945,20453.1,2.04411
12586,61.4629,20476.9,2.04557
12600,61.53125,20507.6,2.04922
12614,61.5996,20531.1,2.05117
12628,61.668,20545.1,2.05404
12642,61.7363,20567.3,2.05631
12656,61.8047,20562.3,2.05864
12670,61.873,20611.2,2.060833
12684,61.9414,20610.6,2.064141
12698,62.0098,20661.2,2.06523
12712,62.0781,20673.1,2.0697
12726,62.1465,20698.1,2.06922
12740,62.2148,20719.6,2.07099
12754,62.2832,20738.9,2.0736
12768,62.3516,20770.3,2.0778
12782,62.4199,20805.9,2.079916
12796,62.4883,20814.6,2.079644
12810,62.5566,20835.7,2.08374
12824,62.625,20846.6,2.08456
12838,62.6934,20864.8,2.08715
12852,62.7617,20902.2,2.08946
12866,62.8301,20920,2.09243
12880,62.8984,20940.6,2.09436
12894,62.9668,20946.3,2.09645
12908,63.0352,20975.6,2.09905
12922,63.1035,21015.3,2.1009
12936,63.1719,21023.7,2.10333
12950,63.2402,21059.1,2.10501
12964,63.3086,21076.1,2.10829
12978,63.377,21087.4,2.10984
12992,63.4453,21112.5,2.11332
13006,63.5137,21144.6,2.11483
13020,63.582,21157,2.11819
13034,63.6504,21185,2.12063
13048,63.71875,21205.5,2.12281
13062,63.7871,21225.9,2.12294
13076,63.8555,21238.8,2.12545
13090,63.9238,21286,2.12994
13104,63.9922,21292.9,2.13142
13118,64.0605,21302.1,2.13201
13132,64.1289,21320.8,2.135093
13146,64.1973,21354.7,2.13758
13160,64.2656,21374.7,2.14012
13174,64.334,21400.5,2.14173
13188,64.4023,21409.9,2.14416
13202,64.4707,21428.4,2.14671
13216,64.5391,21463,2.14945
13230,64.6074,21500.3,2.1528
13244,64.6758,21513.5,2.15483
13258,64.7441,21529.8,2.15536
13272,64.8125,21565.9,2.15924
13286,64.8809,21577.6,2.16164
13300,64.9492,21589.5,2.16253
13314,65.0176,21616.5,2.16591
13328,65.0859,21640.6,2.16551
13342,65.1543,21645.1,2.17051
13356,65.2227,21684.4,2.17253
13370,65.291,21700.4,2.17433
13384,65.3594,21723.2,2.17543
13398,65.4277,21755.4,2.17983
13412,65.4961,21780,2.18111
13426,65.5645,21793.6,2.18313
13440,65.6328,21809.3,2.18585
13454,65.7012,21844.8,2.188576
13468,65.7695,21854.8,2.19103
13482,65.8379,21884,2.19338
13496,65.90625,21906.3,2.19421
13510,65.9746,21918.7,2.196434
13524,66.043,21945.5,2.20036
13538,66.1113,21967.5,2.20212
13552,66.1797,21983.8,2.20309
13566,66.248,22016,2.20674
13580,66.3164,22021.3,2.20884
13594,66.3848,22050.9,2.20973
13608,66.4531,22072.8,2.21287
13622,66.5215,22100.2,2.21438
13636,66.5898,22119.9,2.21724
13650,66.6582,22139.5,2.21824
13664,66.7266,22160.4,2.22163
13678,66.7949,22179.4,2.22441
13692,66.8633,22198,2.22525
13706,66.9316,22226.9,2.22941
13720,67.0,22255.2,2.2309
13734,67.0684,22276.2,2.23302
13748,67.1367,22295.8,2.235446
13762,67.2051,22309.1,2.23561
13776,67.2734,22326.9,2.23851
13790,67.3418,22368.2,2.24335
13804,67.4102,22384.2,2.24517
13818,67.4785,22375,2.24653
13832,67.5469,22426.6,2.24926
13846,67.6152,22445.3,2.2513
13860,67.6836,22460.7,2.25396
13874,67.752,22494.7,2.256551
13888,67.8203,22494.7,2.25849
13902,67.8887,22535.8,2.25972
13916,67.957,22550.1,2.26296
13930,68.0254,22583,2.26432
13944,68.09375,22581.5,2.2671
13958,68.1621,22625.4,2.26938
13972,68.2305,22646.7,2.27293
13986,68.2988,22670.3,2.2727
14000,68.3672,22686.6,2.27555
14014,68.4355,22721.3,2.28003
14028,68.5039,22732.8,2.28077
14042,68.5723,22749.4,2.282867
14056,68.6406,22770.6,2.2866
14070,68.709,22811.5,2.28769
14084,68.7773,22817.6,2.288595
14098,68.8457,22841.4,2.29296
14112,68.9141,22861.9,2.29514
14126,68.9824,22879.4,2.29618
14140,69.0508,22900.5,2.30005
14154,69.1191,22923.9,2.30209
14168,69.1875,22939.4,2.30334
14182,69.2559,22968.4,2.30617
14196,69.3242,22989.9,2.30815
14210,69.3926,23018.2,2.31159
14224,69.4609,23027.2,2.31231
14238,69.5293,23060.5,2.31569
14252,69.5977,23084.2,2.3184
14266,69.666,23110.3,2.31971
14280,69.7344,23117.6,2.32236
14294,69.8027,23151,2.32411
14308,69.8711,23155.7,2.3257
14322,69.9395,23194.8,2.329
14336,70.0078,23206.3,2.33046
14350,70.0762,23223,2.33348
14364,70.1445,23254.7,2.33747
14378,70.2129,23277.9,2.33882
14392,70.28125,23291,2.33962
14406,70.3496,23328.4,2.34321
14420,70.418,23347.1,2.34529
14434,70.4863,23354.5,2.3457
14448,70.5547,23362.6,2.34939
14462,70.623,23415.2,2.351512
14476,70.6914,23434,2.35434
14490,70.7598,23453.9,2.35613
14504,70.8281,23468.6,2.35904
14518,70.8965,23492.9,2.36042
14532,70.9648,23508.3,2.36288
14546,71.0332,23524.9,2.3657
14560,71.1016,23560.4,2.3687
14574,71.1699,23578.9,2.36943
14588,71.2383,23597.5,2.3726
14602,71.3066,23627.6,2.37411
14616,71.375,23631.6,2.37691
14630,71.4434,23670.8,2.37936
14644,71.5117,23684.5,2.381495
14658,71.5801,23700.2,2.3847
14672,71.6484,23741.6,2.38737
14686,71.7168,23758.7,2.3891
14700,71.7852,23767.5,2.3896
14714,71.8535,23784.3,2.39304
14728,71.9219,23813.7,2.39568
14742,71.9902,23842.7,2.39859
14756,72.0586,23859.4,2.40022
14770,72.127,23894.2,2.40316
14784,72.1953,23905.4,2.40488
14798,72.2637,23915.2,2.40566
14812,72.332,23951.6,2.409224
14826,72.4004,23971.6,2.41073
14840,72.46875,23973.7,2.41206
14854,72.5371,24017.2,2.41649
14868,72.6055,24046.3,2.41812
14882,72.6738,24057.6,2.42116
14896,72.7422,24084.8,2.42334
14910,72.8105,24105.4,2.42529
14924,72.8789,24105.9,2.42695
14938,72.9473,24154.1,2.43041
14952,73.0156,24169.4,2.43192
14966,73.084,24167.6,2.43341
14980,73.1523,24213.8,2.43677
14994,73.2207,24239.2,2.43836
15008,73.2891,24214.7,2.44104
15022,73.3574,24271.9,2.44205
15036,73.4258,24292.2,2.44616
15050,73.4941,24317.3,2.44819
15064,73.5625,24333.7,2.45105
15078,73.6309,24370.6,2.45309
15092,73.6992,24388.7,2.455915
15106,73.7676,24407.6,2.45629
15120,73.8359,24427.3,2.46024
15134,73.9043,24455.4,2.46195
15148,73.9727,24452.8,2.463659
15162,74.041,24490.8,2.46581
15176,74.1094,24501.7,2.46855
15190,74.1777,24519.2,2.47094
15204,74.2461,24555.2,2.47455
15218,74.3145,24582.8,2.47686
15232,74.3828,24604.3,2.47735
15246,74.4512,24613.3,2.4793
15260,74.5195,24639.2,2.4823
15274,74.5879,24657.6,2.48368
15288,74.65625,24680.1,2.48658
15302,74.7246,24709.7,2.48961
15316,74.793,24734.3,2.49131
15330,74.8613,24754.8,2.49353
15344,74.9297,24779.7,2.49613
15358,74.998,24801.1,2.498579
15372,75.0664,24812.4,2.49974
15386,75.1348,24835.9,2.50367
15400,75.2031,24865.5,2.50473
15414,75.2715,24873,2.50707
15428,75.3398,24913.5,2.5096
15442,75.4082,24927.7,2.5114
15456,75.4766,24931.5,2.51481
15470,75.5449,24966.9,2.51637
15484,75.6133,24982.5,2.51875
15498,75.6816,24994.7,2.51959
15512,75.75,25010.6,2.52376
15526,75.8184,25060.2,2.52547
15540,75.8867,25068.4,2.527173
15554,75.9551,25087.2,2.5311
15568,76.0234,25124.2,2.53225
15582,76.0918,25131.2,2.53335
15596,76.1602,25169.2,2.53725
15610,76.2285,25201.5,2.54054
15624,76.2969,25212.5,2.54179
15638,76.3652,25236.5,2.54441
15652,76.4336,25254.7,2.54723
15666,76.502,25289.9,2.55019
15680,76.5703,25306.2,2.55205
15694,76.6387,25335.4,2.55469
15708,76.707,25355.8,2.55674
15722,76.7754,25378.1,2.55973
15736,76.84375,25400.8,2.56095
15750,76.9121,25417.9,2.56528
15764,76.9805,25429.7,2.56499
15778,77.0488,25463.5,2.56822
15792,77.1172,25480,2.56998
15806,77.1855,25484.4,2.57212
15820,77.2539,25509,2.57499
15834,77.3223,25540.6,2.575788
15848,77.3906,25559.4,2.57849
15862,77.459,25566.7,2.58085
15876,77.5273,25604.2,2.58361
15890,77.5957,25625.5,2.58541
15904,77.6641,25624.6,2.5868
15918,77.7324,25666.9,2.58961
15932,77.8008,25676.8,2.59247
15946,77.8691,25706.6,2.5959
15960,77.9375,25719.9,2.59774
15974,78.0059,25749.1,2.60096
15988,78.0742,25759,2.60143
16002,78.1426,25786.6,2.60397
16016,78.2109,25809.2,2.60465
16030,78.2793,25816.3,2.60791
16044,78.3477,25840.8,2.60981
16058,78.416,25870.2,2.61403
16072,78.4844,25883.9,2.61412
16086,78.5527,25918,2.61837
16100,78.6211,25933.2,2.6194
16114,78.6895,25952.8,2.62174
16128,78.7578,25970.9,2.62309
16142,78.8262,26009.1,2.62614
16156,78.8945,26020.2,2.62896
16170,78.9629,26020.5,2.62911
16184,79.03125,26055.7,2.63129
16198,79.0996,26087.7,2.63532
16212,79.168,26094,2.63627
16226,79.2363,26126.3,2.63926
16240,79.3047,26137,2.64145
16254,79.373,26162.2,2.64389
16268,79.4414,26181.8,2.64632
16282,79.5098,26218.5,2.64848
16296,79.5781,26203.1,2.65055
16310,79.6465,26255.7,2.65396
16324,79.7148,26279.1,2.65585
16338,79.7832,26294.5,2.6579
16352,79.8516,26296.1,2.66064
16366,79.9199,26340.4,2.66123
16380,79.9883,26341.3,2.66433
16394,80.0566,26373.4,2.66588
16408,80.125,26386.7,2.66716
16422,80.1934,26421.5,2.66962
16436,80.2617,26442.4,2.67218
16450,80.3301,26467.9,2.676132
16464,80.3984,26477.7,2.67769
16478,80.4668,26493.3,2.68078
16492,80.5352,26511.2,2.68306
16506,80.6035,26546.2,2.684828
16520,80.6719,26554.2,2.68577
16534,80.7402,26586.1,2.68908
16548,80.8086,26611.8,2.69226
16562,80.877,26628.8,2.69276
16576,80.9453,26646.7,2.6955
16590,81.0137,26669.1,2.698396
16604,81.082,26661.6,2.69953
16618,81.1504,26710.5,2.70246
16632,81.21875,26738.4,2.70406
16646,81.2871,26755.4,2.70667
16660,81.3555,26763.6,2.71041
16674,81.4238,26795.9,2.7128
16688,81.4922,26826.9,2.71466
16702,81.5605,26838.3,2.71621
16716,81.6289,26855.8,2.71891
16730,81.6973,26887.3,2.72135
16744,81.7656,26897.5,2.72335
16758,81.834,26921.6,2.72578
16772,81.9023,26942.8,2.72729
16786,81.9707,26973.3,2.72941
16800,82.0391,26993,2.73276
16814,82.1074,27016.5,2.7344
16828,82.1758,27024.1,2.738054
16842,82.2441,27059.5,2.739023
16856,82.3125,27083.7,2.74156
16870,82.3809,27085.4,2.74268
16884,82.4492,27113.6,2.74675
16898,82.5176,27145.4,2.74805
16912,82.5859,27152.2,2.74995
16926,82.6543,27186.3,2.75285
16940,82.7227,27194.9,2.75407
16954,82.791,27224.5,2.75696
16968,82.8594,27237.5,2.75823
16982,82.9277,27264.1,2.7632
16996,82.9961,27294.6,2.76511
17010,83.0645,27305.5,2.76588
17024,83.1328,27331.7,2.76848
17038,83.2012,27362.1,2.771112
17052,83.2695,27373.1,2.77274
17066,83.3379,27402.2,2.77547
17080,83.40625,27422.1,2.77905
17094,83.4746,27432.9,2.78066
17108,83.543,27450.8,2.78229
17122,83.6113,27480.3,2.78442
17136,83.6797,27483.1,2.78536
17150,83.748,27507.3,2.78728
17164,83.8164,27545.6,2.79154
17178,83.8848,27553.3,2.79369
17192,83.9531,27581.8,2.79624
17206,84.0215,27608.6,2.798434
17220,84.0898,27601.2,2.79979
17234,84.1582,27648.1,2.80264
17248,84.2266,27660.1,2.80537
17262,84.2949,27692.4,2.80706
17276,84.3633,27710.8,2.80967
17290,84.4316,27735.8,2.81231
17304,84.5,27734.4,2.813
17318,84.5684,27773.5,2.81584
17332,84.6367,27799.4,2.81795
17346,84.7051,27828,2.81957
17360,84.7734,27836.8,2.82258
17374,84.8418,27862.4,2.82352
17388,84.9102,27886.5,2.82808
17402,84.9785,27896.1,2.82947
17416,85.0469,27926.5,2.83169
17430,85.1152,27949.2,2.83402
17444,85.1836,27953,2.835465
17458,85.252,27991.6,2.83942
17472,85.3203,28016.3,2.84045
17486,85.3887,28035.5,2.84352
17500,85.457,28060.5,2.84619
17514,85.5254,28062.4,2.84882
17528,85.59375,28100.1,2.85029
17542,85.6621,28107.3,2.85214
17556,85.7305,28130.7,2.8546
17570,85.7988,28161.7,2.85588
17584,85.8672,28176.8,2.85876
17598,85.9355,28203.9,2.8619
17612,86.0039,28211.8,2.86334
17626,86.0723,28230.1,2.866097
17640,86.1406,28269.6,2.86863
17654,86.209,28294.8,2.87058
17668,86.2773,28295.7,2.87311
17682,86.3457,28322.3,2.87598
17696,86.4141,28362.4,2.8785
17710,86.4824,28351.5,2.87916
17724,86.5508,28388.3,2.88272
17738,86.6191,28416.9,2.88563
17752,86.6875,28429.1,2.88657
17766,86.7559,28449.2,2.8899
17780,86.8242,28473.5,2.89241
17794,86.8926,28494.8,2.893075
17808,86.9609,28506.2,2.89663
17822,87.0293,28544.5,2.899
17836,87.0977,28562.2,2.90048
17850,87.166,28583.5,2.90368
17864,87.2344,28602.4,2.90572
17878,87.3027,28629.9,2.90683
17892,87.3711,28628.9,2.90926
17906,87.4395,28661,2.91341
17920,87.5078,28694.1,2.913944
17934,87.5762,28703.3,2.91629
17948,87.6445,28727.3,2.91941
17962,87.7129,28758.3,2.9204
17976,87.78125,28758,2.92216
17990,87.8496,28792.7,2.92596
18004,87.918,28812.7,2.9283
18018,87.9863,28836.1,2.92915
18032,88.0547,28843.9,2.93278
18046,88.123,28866.8,2.93428
18060,88.1914,28884.4,2.93652
18074,88.2598,28913.3,2.94008
18088,88.3281,28941.9,2.94093
18102,88.3965,28952.8,2.94543
18116,88.4648,28971.1,2.94693
18130,88.5332,28991.8,2.94925
18144,88.6016,29019.9,2.95013
18158,88.6699,29040.6,2.95285
18172,88.7383,29069,2.95514
18186,88.8066,29076.1,2.95594
18200,88.875,29090.5,2.9598
18214,88.9434,29124.6,2.96168
18228,89.0117,29146.8,2.965117
18242,89.0801,29150.7,2.967335
18256,89.1484,29179.1,2.96886
18270,89.2168,29208.8,2.97154
18284,89.2852,29230.6,2.97345
18298,89.3535,29253.8,2.97602
18312,89.4219,29275.1,2.978358
18326,89.4902,29293.8,2.98049
18340,89.5586,29316.2,2.9818
18354,89.627,29340.6,2.98541
18368,89.6953,29362.2,2.9877
18382,89.7637,29351.5,2.98956
18396,89.832,29399.2,2.9913
18410,89.9004,29411.3,2.99308
18424,89.96875,29427.4,2.99506
18438,90.0371,29461.8,2.999891
18452,90.1055,29476,3.00106
18466,90.1738,29498.5,3.00322
18480,90.2422,29523.8,3.00578
18494,90.3105,29539.8,3.0086
18508,90.3789,29558.2,3.00941
18522,90.4473,29582.1,3.01202
18536,90.5156,29607,3.01466
18550,90.584,29620.8,3.01539
18564,90.6523,29640.5,3.01987
18578,90.7207,29662.8,3.02174
18592,90.7891,29687.6,3.02363
18606,90.8574,29700.9,3.02579
18620,90.9258,29732.1,3.02931
18634,90.9941,29749.4,3.03036
18648,91.0625,29766,3.03324
18662,91.1309,29785.9,3.03499
18676,91.1992,29814.2,3.03787
18690,91.2676,29827.6,3.03989
18704,91.3359,29860,3.04151
18718,91.4043,29880.6,3.04437
18732,91.4727,29866.7,3.04573
18746,91.541,29911.8,3.04937
18760,91.6094,29936,3.05148
18774,91.6777,29962.4,3.0539
18788,91.7461,29979.2,3.05661
18802,91.8145,29998.1,3.05824
18816,91.8828,29998.5,3.06042
18830,91.9512,30039.7,3.06233
18844,92.0195,30060.1,3.06468
18858,92.0879,30079.4,3.06664
18872,92.15625,30099.6,3.06942
18886,92.2246,30123.5,3.0712
18900,92.293,30146.1,3.07423
18914,92.3613,30165.1,3.07622
18928,92.4297,30189.6,3.07963
18942,92.498,30209.9,3.08248
18956,92.5664,30217.3,3.08302
18970,92.6348,30253.6,3.08665
18984,92.7031,30267.8,3.08777
18998,92.7715,30285.7,3.09181
19012,92.8398,30309.4,3.09244
19026,92.9082,30323.7,3.09486
19040,92.9766,30342.6,3.09634
19054,93.0449,30361.7,3.10076
19068,93.1133,30379.8,3.10157
19082,93.1816,30408.1,3.1041
19096,93.25,30417.2,3.10649
19110,93.3184,30443.3,3.10745
19124,93.3867,30450,3.110147
19138,93.4551,30485.2,3.11367
19152,93.5234,30499.4,3.11477
19166,93.5918,30516,3.11716
19180,93.6602,30544.6,3.1202
19194,93.7285,30569.5,3.12175
19208,93.7969,30583,3.12382
19222,93.8652,30596.5,3.12743
19236,93.9336,30638.9,3.13014
19250,94.002,30648.3,3.130909
19264,94.0703,30657.6,3.13448
19278,94.1387,30685.5,3.13599
19292,94.207,30694.8,3.138916
19306,94.2754,30713,3.13928
19320,94.34375,30746.3,3.14296
19334,94.4121,30754.6,3.14614
19348,94.4805,30764.7,3.14716
19362,94.5488,30807.3,3.149893
19376,94.6172,30828.2,3.15253
19390,94.6855,30841.6,3.15391
19404,94.7539,30852.5,3.1557
19418,94.8223,30884.8,3.15951
19432,94.8906,30897.9,3.16103
19446,94.959,30919.3,3.16498
19460,95.0273,30953.1,3.16567
19474,95.0957,30961.5,3.16874
19488,95.1641,30989.5,3.17064
19502,95.2324,31008.7,3.17382
19516,95.3008,31024.1,3.17509
19530,95.3691,31040.7,3.17751
19544,95.4375,31055.7,3.17978
19558,95.5059,31088.9,3.182858
19572,95.5742,31089.7,3.18282
19586,95.6426,31104.5,3.18525
19600,95.7109,7350.38,3.34437