File: ASM109_2021_data/MTS/UD/MTS_UD_11.csv
,Time [s],Load [N],Displacement [mm]
0,0.0078125,-236.373,0.0002919574
13,0.0712891,-235.539,0.00306669
26,0.134766,-237.182,0.00285477
39,0.198242,-230.127,0.00635421
52,0.261719,-219.196,0.00956133
65,0.325195,-189.068,0.0106339
78,0.388672,-182.83,0.0112361
91,0.452148,-163.441,0.01495653
104,0.515625,-130.043,0.0175484
117,0.579102,-125.792,0.0197656
130,0.642578,-91.0331,0.0218182
143,0.706055,-67.9728,0.0226447
156,0.769531,-62.1705,0.025229
169,0.833008,-28.583,0.0273806
182,0.896484,-8.35525,0.0284484
195,0.959961,16.64,0.0308164
208,1.02344,27.9698,0.0332576
221,1.08691,34.5741,0.0362194
234,1.15039,74.2337,0.03870419
247,1.21387,100.115,0.0394869
260,1.27734,108.486,0.041681
273,1.34082,134.818,0.04329963
286,1.4043,165.881,0.0459653
299,1.46777,177.925,0.04852071
312,1.53125,205.639,0.0507955
325,1.59473,216.031,0.0516656
338,1.6582,252.202,0.0543828
351,1.72168,265.753,0.0544614
364,1.78516,272.336,0.0579765
377,1.84863,311.635,0.058687
390,1.91211,339.86,0.0614668
403,1.97559,360.291,0.0647009
416,2.03906,364.826,0.0672437
429,2.10254,396.329,0.0695553
442,2.16602,419.01,0.07049264
455,2.22949,442.66,0.0728673
468,2.29297,468.542,0.0744517
481,2.35645,485.306,0.0770112
494,2.41992,509.21,0.0796161
507,2.4834,523.02,0.0808481
520,2.546875,551.412,0.0833368
533,2.61035,569.007,0.0863922
546,2.67383,594.423,0.0889836
559,2.7373,625.9,0.0899192
572,2.80078,642.899,0.091949
585,2.86426,649.355,0.0948484
598,2.92773,684.353,0.0962229
611,2.99121,706.124,0.0975718
624,3.05469,737.588,0.100808
637,3.11816,753.904,0.102795
650,3.18164,769.544,0.103824
663,3.24512,797.102,0.106329
676,3.30859,814.181,0.110313
689,3.37207,816.911,0.11099
702,3.43555,862.19,0.113735
715,3.49902,881.368,0.113581
728,3.5625,915.361,0.118182
741,3.62598,924.835,0.120102
754,3.68945,937.881,0.121687
767,3.75293,969.261,0.122203
780,3.81641,993.218,0.125038
793,3.87988,1015.3,0.128476
806,3.94336,1041.26,0.129341
819,4.00684,1056.84,0.131048
832,4.07031,1081.75,0.134848
845,4.13379,1108.4,0.13604
858,4.19727,1125.43,0.136953
871,4.26074,1160.72,0.142475
884,4.32422,1167.75,0.142609
897,4.3877,1181.21,0.144674
910,4.45117,1226.59,0.147592
923,4.51465,1233.8,0.149118
936,4.578125,1241.17,0.150593
949,4.6416,1275.94,0.153356
962,4.70508,1289.79,0.154778
975,4.76855,1304.85,0.155831
988,4.83203,1342.59,0.160972
1001,4.89551,1357.81,0.161047
1014,4.95898,1383.56,0.163584
1027,5.02246,1418.29,0.166475
1040,5.08594,1424.52,0.16742
1053,5.14941,1437.63,0.168436
1066,5.21289,1475.84,0.172464
1079,5.27637,1492.51,0.172978
1092,5.33984,1515.81,0.176337
1105,5.40332,1535.02,0.178446
1118,5.4668,1567.47,0.181978
1131,5.53027,1583.72,0.183405
1144,5.59375,1595.49,0.184757
1157,5.65723,1632.5,0.18644
1170,5.7207,1644.12,0.189121
1183,5.78418,1669.4,0.189915
1196,5.84766,1687.93,0.194568
1209,5.91113,1709.27,0.19645
1222,5.97461,1724.74,0.1963387
1235,6.03809,1765.27,0.19986
1248,6.10156,1776.82,0.20199
1261,6.16504,1805.25,0.203258
1274,6.22852,1829.36,0.206401
1287,6.29199,1846.86,0.208399
1300,6.35547,1874.63,0.210436
1313,6.41895,1893.26,0.21258
1326,6.48242,1910.65,0.212779
1339,6.5459,1940.59,0.217207
1352,6.609375,1956.41,0.218214
1365,6.67285,1976.76,0.2212473
1378,6.73633,2003.09,0.224018
1391,6.7998,2029.01,0.222373
1404,6.86328,2040.19,0.228037
1417,6.92676,2062.53,0.228236
1430,6.99023,2099.33,0.230924
1443,7.05371,2113.51,0.232478
1456,7.11719,2147.25,0.236574
1469,7.18066,2149.51,0.237462
1482,7.24414,2190.98,0.240302
1495,7.30762,2202.2,0.242177
1508,7.37109,2214.3,0.245128
1521,7.43457,2238.56,0.246021
1534,7.49805,2261.47,0.247501
1547,7.56152,2276.27,0.249435
1560,7.625,2309.62,0.252668
1573,7.68848,2325.14,0.255251
1586,7.75195,2355.6,0.256904
1599,7.81543,2369.5,0.257571
1612,7.87891,2388.27,0.260685
1625,7.94238,2422.27,0.262927
1638,8.00586,2444.48,0.265401
1651,8.06934,2466.14,0.26798
1664,8.13281,2484.47,0.268665
1677,8.19629,2496.71,0.271145
1690,8.25977,2521.98,0.273541
1703,8.32324,2550.12,0.276464
1716,8.38672,2563.41,0.2788676
1729,8.4502,2591.3,0.281558
1742,8.51367,2620.36,0.281879
1755,8.57715,2642.25,0.284313
1768,8.640625,2653.32,0.286838
1781,8.7041,2673,0.289135
1794,8.76758,2685.04,0.292165
1807,8.83105,2726.28,0.292787
1820,8.89453,2733.99,0.295186
1833,8.95801,2764.68,0.296939
1846,9.02148,2797.18,0.299811
1859,9.08496,2807.12,0.301494
1872,9.14844,2835.51,0.303693
1885,9.21191,2842.22,0.305194
1898,9.27539,2875.61,0.307909
1911,9.33887,2907.56,0.3098028
1924,9.40234,2913.97,0.311813
1937,9.46582,2922.55,0.314125
1950,9.5293,2967.94,0.316422
1963,9.59277,2984.52,0.316566
1976,9.65625,2979.89,0.321192
1989,9.71973,3024.42,0.3235985
2002,9.7832,3033.27,0.323835
2015,9.84668,3073.11,0.32685
2028,9.91016,3093.17,0.329206
2041,9.97363,3110.57,0.330461
2054,10.0371,3137.27,0.334777
2067,10.1006,3142.58,0.334228
2080,10.1641,3169.62,0.336192
2093,10.2275,3180.73,0.339251
2106,10.291,3220.62,0.34107
2119,10.3545,3238.27,0.343563
2132,10.418,3258.55,0.345831
2145,10.4814,3273.2,0.347203
2158,10.5449,3307.91,0.350089
2171,10.6084,3342.28,0.3528018
2184,10.6719,3343.75,0.355151
2197,10.7354,3370.74,0.356397
2210,10.7988,3387.77,0.358122
2223,10.8623,3412.34,0.360568
2236,10.9258,3429.79,0.362779
2249,10.9893,3448.54,0.36571
2262,11.0527,3485.45,0.368445
2275,11.1162,3496.88,0.370181
2288,11.1797,3506.06,0.370253
2301,11.2432,3532.09,0.373135
2314,11.3066,3567.01,0.374771
2327,11.3701,3590.25,0.377868
2340,11.4336,3597.97,0.379772
2353,11.4971,3622.52,0.381161
2366,11.5605,3655.39,0.383173
2379,11.624,3679.49,0.38751
2392,11.6875,3683.98,0.387262
2405,11.751,3710.29,0.39075
2418,11.8145,3738.4,0.3914355
2431,11.8779,3766.54,0.394718
2444,11.9414,3770.66,0.397286
2457,12.0049,3774.86,0.398178
2470,12.0684,3814.97,0.401261
2483,12.1318,3852.22,0.402562
2496,12.1953,3855.98,0.4046047
2509,12.2588,3883.23,0.407984
2522,12.3223,3920.01,0.410428
2535,12.3857,3930.92,0.413056
2548,12.4492,3955.18,0.415114
2561,12.5127,3968.79,0.4161652
2574,12.5762,3997.03,0.418404
2587,12.6396,4015.97,0.420382
2600,12.7031,4030.17,0.421315
2613,12.7666,4049.43,0.4242776
2626,12.8301,4081.1,0.426543
2639,12.8936,4096.01,0.42732
2652,12.957,4123.82,0.431528
2665,13.0205,4136.74,0.431871
2678,13.084,4161.84,0.433863
2691,13.1475,4191.6,0.437632
2704,13.2109,4201.13,0.43947
2717,13.2744,4209.49,0.441632
2730,13.3379,4253.28,0.443045
2743,13.4014,4273.09,0.445064
2756,13.4648,4293.1,0.446429
2769,13.52832,4317.81,0.4494431
2782,13.5918,4337.34,0.451198
2795,13.6553,4368.23,0.453096
2808,13.71875,4388.25,0.457714
2821,13.7822,4366.39,0.458005
2834,13.8457,4419.76,0.458287
2847,13.90918,4451.41,0.462477
2860,13.9727,4457.6,0.465698
2873,14.0361,4487.36,0.4681496
2886,14.0996,4510.68,0.467807
2899,14.1631,4526.31,0.4691861
2912,14.2266,4545.79,0.473713
2925,14.29,4554.78,0.474818
2938,14.3535,4604.61,0.475699
2951,14.417,4618.81,0.478153
2964,14.4805,4631.31,0.479476
2977,14.5439,4653.49,0.483241
2990,14.6074,4685.78,0.484512
3003,14.6709,4695.08,0.486839
3016,14.7344,4718.81,0.488958
3029,14.7979,4739.17,0.489937
3042,14.8613,4757.26,0.493112
3055,14.9248,4790.15,0.494923
3068,14.9883,4796.15,0.496703
3081,15.0518,4824.04,0.501017
3094,15.1152,4854.81,0.500677
3107,15.1787,4850.94,0.503135
3120,15.2422,4892.29,0.506213
3133,15.3057,4902.6,0.508324
3146,15.3691,4926.83,0.509701
3159,15.4326,4954.52,0.511363
3172,15.4961,4969.71,0.51539
3185,15.55957,4997.46,0.5184992
3198,15.623,5026.19,0.518683
3211,15.6865,5041.05,0.519867
3224,15.75,5062.14,0.523117
3237,15.8135,5086.41,0.526086
3250,15.877,5096.04,0.5272873
3263,15.94043,5121.84,0.529844
3276,16.0039,5149.03,0.532033
3289,16.0674,5152.41,0.533622
3302,16.1309,5198.96,0.535055
3315,16.1943,5200.79,0.537009
3328,16.2578,5233.48,0.54004
3341,16.3213,5263.49,0.543062
3354,16.3848,5251.44,0.542815
3367,16.4482,5289.42,0.54512
3380,16.5117,5319.9,0.547841
3393,16.5752,5329.8,0.550945
3406,16.6387,5371.51,0.553219
3419,16.7021,5387.38,0.554847
3432,16.7656,5399.51,0.557596
3445,16.8291,5423.62,0.560639
3458,16.8926,5440.61,0.560281
3471,16.9561,5468.03,0.562494
3484,17.0195,5489.33,0.566373
3497,17.083,5496.07,0.567394
3510,17.1465,5529.7,0.56888
3523,17.21,5557.3,0.5716995
3536,17.2734,5550.27,0.573152
3549,17.3369,5597.22,0.576467
3562,17.4004,5615.46,0.577334
3575,17.4639,5636.74,0.579301
3588,17.5273,5659.05,0.58214
3601,17.59082,5680.5,0.586245
3614,17.6543,5701.56,0.586511
3627,17.7178,5730.24,0.589182
3640,17.78125,5723.45,0.589936
3653,17.8447,5761.56,0.593764
3666,17.9082,5785.8,0.594406
3679,17.97168,5795.82,0.596717
3692,18.0352,5828.96,0.600584
3705,18.0986,5840.41,0.601996
3718,18.1621,5876.72,0.602216
3731,18.2256,5903.41,0.604334
3744,18.2891,5903.48,0.607052
3757,18.3525,5937.65,0.60969
3770,18.416,5962.89,0.611684
3783,18.4795,5964.35,0.611609
3796,18.543,5992.59,0.617232
3809,18.6064,6024.67,0.619734
3822,18.6699,6046.7,0.619377
3835,18.7334,6072.4,0.622852
3848,18.7969,6092.18,0.625397
3861,18.8604,6108.48,0.627111
3874,18.9238,6136.52,0.629611
3887,18.9873,6141.35,0.631627
3900,19.0508,6171.47,0.633361
3913,19.1143,6196.72,0.635396
3926,19.1777,6216.5,0.637672
3939,19.2412,6236.63,0.639104
3952,19.3047,6251.4,0.641609
3965,19.3682,6258.47,0.644229
3978,19.4316,6298.99,0.646548
3991,19.4951,6318.5,0.648628
4004,19.5586,6338.82,0.650357
4017,19.62207,6364.7,0.652732
4030,19.6855,6383.55,0.653565
4043,19.749,6406.55,0.6571117
4056,19.8125,6414.01,0.657946
4069,19.876,6446.18,0.65959
4082,19.9395,6479.73,0.66236
4095,20.00293,6486.23,0.663462
4108,20.0664,6500.98,0.666489
4121,20.1299,6529.58,0.668518
4134,20.1934,6556.73,0.6716525
4147,20.2568,6578.72,0.674345
4160,20.3203,6605,0.675098
4173,20.3838,6609.13,0.676922
4186,20.4473,6652.29,0.680171
4199,20.5107,6669.84,0.68139
4212,20.5742,6688.24,0.684373
4225,20.6377,6713.3,0.68719
4238,20.7012,6726.56,0.687332
4251,20.7646,6736.06,0.6910736
4264,20.8281,6765.9,0.692687
4277,20.8916,6775.09,0.6945
4290,20.9551,6803.47,0.696906
4303,21.0186,6838.25,0.699319
4316,21.082,6845.36,0.699414
4329,21.1455,6871.21,0.7041043
4342,21.209,6905.92,0.705732
4355,21.2725,6904.7,0.708131
4368,21.3359,6939.61,0.709336
4381,21.3994,6947.43,0.7121104
4394,21.4629,6978.02,0.713719
4407,21.5264,7004.25,0.716239
4420,21.5898,7000.61,0.718205
4433,21.65332,7042.06,0.719428
4446,21.7168,7072.96,0.723772
4459,21.7803,7081.15,0.723338
4472,21.84375,7098.82,0.726548
4485,21.9072,7122.77,0.728756
4498,21.9707,7159.39,0.730711
4511,22.03418,7177.93,0.733442
4524,22.0977,7179.27,0.7359311
4537,22.1611,7211.75,0.738529
4550,22.2246,7238.77,0.737646
4563,22.2881,7248.57,0.740842
4576,22.3516,7272.52,0.743395
4589,22.415,7291.18,0.745003
4602,22.4785,7315.03,0.746859
4615,22.542,7342.05,0.749873
4628,22.6055,7341.59,0.750255
4641,22.6689,7372.04,0.754575
4654,22.7324,7403.81,0.754693
4667,22.7959,7424.72,0.757462
4680,22.8594,7435.57,0.760076
4693,22.9229,7466.71,0.762027
4706,22.9863,7457.95,0.763874
4719,23.0498,7503.3,0.766491
4732,23.1133,7538.17,0.767769
4745,23.1768,7546.1,0.769979
4758,23.2402,7582.37,0.773744
4771,23.3037,7602.79,0.77514
4784,23.3672,7609.23,0.777384
4797,23.4307,7645.61,0.778423
4810,23.4941,7669.55,0.7817719
4823,23.5576,7676.6,0.78299
4836,23.6211,7702.66,0.785825
4849,23.68457,7718.79,0.786542
4862,23.748,7746.02,0.79051
4875,23.8115,7762.41,0.791235
4888,23.875,7784.35,0.793948
4901,23.9385,7812.5,0.795913
4914,24.002,7832.97,0.797798
4927,24.06543,7855.25,0.799805
4940,24.1289,7872.02,0.802065
4953,24.1924,7876.75,0.802629
4966,24.2559,7920.21,0.80602
4979,24.3193,7930.62,0.80854
4992,24.3828,7933.97,0.811748
5005,24.4463,7961.87,0.811611
5018,24.5098,8000.62,0.814713
5031,24.5732,8000.11,0.815597
5044,24.6367,8037.71,0.820593
5057,24.7002,8048.35,0.821016
5070,24.7637,8080.92,0.8225804
5083,24.8271,8108.45,0.826016
5096,24.8906,8111.04,0.827737
5109,24.9541,8144.89,0.830801
5122,25.0176,8161.92,0.830404
5135,25.0811,8187.67,0.834007
5148,25.1445,8212.24,0.837412
5161,25.208,8234.02,0.839003
5174,25.2715,8247.29,0.839482
5187,25.335,8279.08,0.842554
5200,25.3984,8285.56,0.845232
5213,25.4619,8312.59,0.846736
5226,25.5254,8345.15,0.849249
5239,25.5889,8346.98,0.85143
5252,25.6523,8373.72,0.85352
5265,25.71582,8409.56,0.856331
5278,25.7793,8423.5,0.857167
5291,25.8428,8444.33,0.859775
5304,25.90625,8453.71,0.861893
5317,25.9697,8459.49,0.863588
5330,26.0332,8500.05,0.866351
5343,26.09668,8513.65,0.868625
5356,26.1602,8542.28,0.87018
5369,26.2236,8575.99,0.872147
5382,26.2871,8582.08,0.873508
5395,26.3506,8617.55,0.876479
5408,26.4141,8624.46,0.8791101
5421,26.4775,8631.34,0.879815
5434,26.541,8681.23,0.882758
5447,26.6045,8687.03,0.885141
5460,26.668,8698.32,0.888281
5473,26.7314,8737.02,0.889813
5486,26.7949,8763.68,0.891256
5499,26.8584,8777.18,0.893722
5512,26.9219,8792.32,0.8974992
5525,26.9854,8820.51,0.897517
5538,27.0488,8838.9,0.899225
5551,27.1123,8860.34,0.902401
5564,27.1758,8865.78,0.903229
5577,27.2393,8908.19,0.907005
5590,27.3027,8930.12,0.907877
5603,27.3662,8944.37,0.910498
5616,27.4297,8970.01,0.913204
5629,27.4932,8982.05,0.913371
5642,27.5566,9016.22,0.917122
5655,27.6201,9031.04,0.918701
5668,27.6836,9032.25,0.9219119
5681,27.74707,9060.93,0.921534
5694,27.8105,9099.03,0.924279
5707,27.874,9112.97,0.926947
5720,27.9375,9141.44,0.9293927
5733,28.001,9154.44,0.9319073
5746,28.0645,9181.89,0.933735
5759,28.12793,9195.69,0.937497
5772,28.1914,9208.29,0.93732
5785,28.2549,9237.49,0.939932
5798,28.3184,9272.52,0.942993
5811,28.3818,9271.68,0.944946
5824,28.4453,9295.52,0.945903
5837,28.5088,9316.19,0.948427
5850,28.5723,9329.69,0.949995
5863,28.6357,9369.61,0.95226
5876,28.6992,9382.7,0.955894
5889,28.7627,9414.22,0.957326
5902,28.8262,9444.02,0.960333
5915,28.8896,9446.95,0.961434
5928,28.9531,9471.75,0.963398
5941,29.0166,9507.57,0.965017
5954,29.0801,9523.42,0.9671315
5967,29.1436,9538.63,0.969795
5980,29.207,9560.07,0.972999
5993,29.2705,9574.85,0.974239
6006,29.334,9618.9,0.977056
6019,29.3975,9624.88,0.978287
6032,29.4609,9646.84,0.980508
6045,29.5244,9672.41,0.982796
6058,29.5879,9683.96,0.983949
6071,29.6514,9708.94,0.986897
6084,29.7148,9732.75,0.989452
6097,29.77832,9743.66,0.990951
6110,29.8418,9760.6,0.99365
6123,29.9053,9801.73,0.996156
6136,29.96875,9814.05,0.998305
6149,30.0322,9837.07,0.999524
6162,30.0957,9863.63,1.00213
6175,30.15918,9882.66,1.00328
6188,30.2227,9899.5,1.00681
6201,30.2861,9913.5,1.00699
6214,30.3496,9948.52,1.0106
6227,30.4131,9963.23,1.01136
6240,30.4766,9970.26,1.01469
6253,30.54,10000.6,1.01677
6266,30.6035,10030.6,1.01888
6279,30.667,10040.7,1.02154
6292,30.7305,10062.5,1.02367
6305,30.7939,10078.1,1.025592
6318,30.8574,10116.7,1.0284
6331,30.9209,10134.4,1.02944
6344,30.9844,10144.1,1.03082
6357,31.0479,10174.3,1.03427
6370,31.1113,10197.7,1.03517
6383,31.1748,10224.2,1.03836
6396,31.2383,10222.9,1.04035
6409,31.3018,10252.7,1.0414
6422,31.3652,10277.5,1.044
6435,31.4287,10303.4,1.04691
6448,31.4922,10311.1,1.04909
6461,31.5557,10331.4,1.05029
6474,31.6191,10370.6,1.05335
6487,31.6826,10374.3,1.05315
6500,31.7461,10408.3,1.05843
6513,31.80957,10418.1,1.05845
6526,31.873,10450.3,1.06097
6539,31.9365,10473.7,1.06313
6552,32.0,10481,1.06514
6565,32.0635,10508.4,1.067533
6578,32.127,10538.6,1.06935
6591,32.19043,10550.2,1.071058
6604,32.2539,10556.5,1.07413
6617,32.3174,10596,1.07575
6630,32.3809,10616.4,1.07772
6643,32.4443,10636.8,1.0803
6656,32.5078,10658.7,1.08204
6669,32.5713,10682.6,1.08388
6682,32.6348,10706.2,1.0851
6695,32.6982,10720.3,1.08798
6708,32.7617,10737.8,1.09002
6721,32.8252,10762.6,1.09254
6734,32.8887,10790.1,1.09492
6747,32.9521,10801.9,1.09589
6760,33.0156,10827.3,1.09871
6773,33.0791,10850.5,1.09987
6786,33.1426,10884.4,1.10335
6799,33.2061,10897.7,1.10618
6812,33.2695,10922.5,1.10796
6825,33.333,10940.7,1.10966
6838,33.3965,10958.8,1.11142
6851,33.46,10983.3,1.11353
6864,33.5234,10993.6,1.1165
6877,33.5869,11012.2,1.11748
6890,33.6504,11045.6,1.12089
6903,33.7139,11061.2,1.12291
6916,33.7773,11071.5,1.12355
6929,33.84082,11102,1.12645
6942,33.9043,11122.5,1.12778
6955,33.9678,11131.8,1.13114
6968,34.03125,11166.1,1.13366
6981,34.0947,11174.7,1.13426
6994,34.1582,11216.8,1.13732
7007,34.22168,11226.7,1.1396
7020,34.2852,11226.3,1.14226
7033,34.3486,11262,1.14547
7046,34.4121,11293.1,1.14556
7059,34.4756,11310.2,1.14716
7072,34.5391,11335.1,1.15047
7085,34.6025,11350,1.15051
7098,34.666,11372.3,1.15383
7111,34.7295,11389.6,1.15666
7124,34.793,11406.7,1.15726
7137,34.8564,11431.8,1.15936
7150,34.9199,11469.7,1.162284
7163,34.9834,11468.6,1.16355
7176,35.0469,11500,1.166536
7189,35.1104,11516.4,1.1678
7202,35.1738,11538.9,1.17143
7215,35.2373,11571.9,1.17345
7228,35.3008,11579.3,1.17474
7241,35.3643,11607.4,1.17842
7254,35.4277,11629.9,1.17862
7267,35.4912,11644.9,1.18205
7280,35.5547,11663.5,1.18384
7293,35.6182,11699.9,1.18642
7306,35.6816,11691,1.18766
7319,35.7451,11723.4,1.18939
7332,35.8086,11746.8,1.19163
7345,35.87207,11765.3,1.19422
7358,35.9355,11803.9,1.19674
7371,35.999,11803.7,1.19772
7384,36.0625,11819.9,1.20023
7397,36.126,11861.4,1.20316
7410,36.1895,11879.4,1.20568
7423,36.25293,11914.3,1.20824
7436,36.3164,11928.2,1.21049
7449,36.3799,11937.1,1.21168
7462,36.4434,11973.1,1.21367
7475,36.5068,11989,1.21661
7488,36.5703,12008.6,1.21761
7501,36.6338,12041.9,1.22225
7514,36.6973,12068.5,1.222947
7527,36.7607,12077.3,1.22597
7540,36.8242,12087,1.22919
7553,36.8877,12101.3,1.23028
7566,36.9512,12142.5,1.232417
7579,37.0146,12174.1,1.23458
7592,37.0781,12178.4,1.23413
7605,37.1416,12199,1.23897
7618,37.2051,12236.6,1.23931
7631,37.2686,12232,1.24104
7644,37.332,12274.7,1.2449
7657,37.3955,12282.7,1.24456
7670,37.459,12306.7,1.24821
7683,37.5225,12315.9,1.24886
7696,37.5859,12325.1,1.25091
7709,37.6494,12362.9,1.25494
7722,37.7129,12401.6,1.25595
7735,37.7764,12400.1,1.25791
7748,37.8398,12428.5,1.26141
7761,37.90332,12446.6,1.2625
7774,37.9668,12469.8,1.26372
7787,38.0303,12487.6,1.26707
7800,38.09375,12495.9,1.26889
7813,38.1572,12534.9,1.27195
7826,38.2207,12560.4,1.27306
7839,38.28418,12560.6,1.27437
7852,38.3477,12597.5,1.27798
7865,38.4111,12600.2,1.279
7878,38.4746,12635.5,1.28103
7891,38.5381,12657.3,1.28327
7904,38.6016,12673.5,1.28708
7917,38.665,12691.7,1.287671
7930,38.7285,12716,1.29011
7943,38.792,12727.9,1.29104
7956,38.8555,12756.8,1.29286
7969,38.9189,12772,1.29606
7982,38.9824,12770.4,1.29769
7995,39.0459,12815.5,1.30052
8008,39.1094,12845.5,1.30312
8021,39.1729,12855.5,1.30482
8034,39.2363,12876.9,1.30648
8047,39.2998,12901.7,1.30798
8060,39.3633,12925.8,1.31109
8073,39.4268,12937.2,1.31242
8086,39.4902,12965,1.31398
8099,39.5537,12986.5,1.31844
8112,39.6172,13010.3,1.31973
8125,39.6807,13019.8,1.3212
8138,39.7441,13053.6,1.32217
8151,39.8076,13068,1.32463
8164,39.8711,13074.4,1.32866
8177,39.93457,13110.8,1.33073
8190,39.998,13134.9,1.33166
8203,40.0615,13153.3,1.33316
8216,40.125,13164.5,1.33678
8229,40.1885,13185.5,1.33838
8242,40.252,13214.6,1.34088
8255,40.31543,13242.9,1.34193
8268,40.3789,13246.5,1.34558
8281,40.4424,13266.2,1.3463
8294,40.5059,13293.3,1.34775
8307,40.5693,13302.5,1.35065
8320,40.6328,13331.6,1.35292
8333,40.6963,13357.2,1.35482
8346,40.7598,13386.7,1.35687
8359,40.8232,13407.6,1.35968
8372,40.8867,13415.4,1.36188
8385,40.9502,13442.7,1.36299
8398,41.0137,13472.6,1.36698
8411,41.0771,13491.2,1.36741
8424,41.1406,13508.7,1.37176
8437,41.2041,13529.4,1.37307
8450,41.2676,13554.3,1.37463
8463,41.3311,13562.4,1.37573
8476,41.3945,13588.8,1.37844
8489,41.458,13611.2,1.38008
8502,41.5215,13638.4,1.38341
8515,41.585,13661.1,1.38509
8528,41.6484,13676.5,1.38684
8541,41.7119,13697,1.38827
8554,41.7754,13718.1,1.38981
8567,41.8389,13741,1.39391
8580,41.9023,13745.6,1.39475
8593,41.96582,13768.7,1.39774
8606,42.0293,13799.3,1.40076
8619,42.0928,13822.1,1.40297
8632,42.15625,13814.1,1.40439
8645,42.2197,13868.5,1.40676
8658,42.2832,13874.4,1.40614
8671,42.34668,13907.9,1.41036
8684,42.4102,13916.4,1.41241
8697,42.4736,13929.7,1.41526
8710,42.5371,13968.4,1.41668
8723,42.6006,13970.9,1.4167
8736,42.6641,14001.3,1.41987
8749,42.7275,14026.6,1.42378
8762,42.791,14040.1,1.42474
8775,42.8545,14073.9,1.42629
8788,42.918,14088.6,1.42999
8801,42.9814,14102.5,1.43085
8814,43.0449,14131.8,1.43258
8827,43.1084,14151.6,1.43549
8840,43.1719,14157.4,1.43681
8853,43.2354,14202.6,1.43994
8866,43.2988,14211.8,1.44171
8879,43.3623,14238.7,1.44447
8892,43.4258,14258.5,1.4475
8905,43.4893,14279.4,1.44781
8918,43.5527,14296.9,1.45156
8931,43.6162,14324.9,1.45401
8944,43.6797,14315.8,1.45476
8957,43.7432,14355.1,1.45659
8970,43.8066,14383.1,1.45831
8983,43.8701,14397.3,1.46103
8996,43.9336,14423.2,1.46323
9009,43.99707,14440.7,1.46486
9022,44.0605,14456.4,1.4674
9035,44.124,14483.7,1.46874
9048,44.1875,14493.8,1.47149
9061,44.251,14522.9,1.47411
9074,44.3145,14555.5,1.47522
9087,44.37793,14563.6,1.47801
9100,44.4414,14581.7,1.48
9113,44.5049,14604.8,1.482067
9126,44.5684,14635.3,1.48333
9139,44.6318,14661.5,1.48632
9152,44.6953,14649.4,1.48679
9165,44.7588,14684.6,1.49115
9178,44.8223,14713.1,1.49264
9191,44.8857,14740.6,1.49261
9204,44.9492,14762,1.49699
9217,45.0127,14779.6,1.49919
9230,45.0762,14790.3,1.50064
9243,45.1396,14814,1.50366
9256,45.2031,14831.9,1.50537
9269,45.2666,14852.9,1.50736
9282,45.3301,14888.3,1.50956
9295,45.3936,14899.6,1.509814
9308,45.457,14925.2,1.51269
9321,45.5205,14954.4,1.51621
9334,45.584,14961.4,1.51811
9347,45.6475,14983.9,1.52177
9360,45.7109,15003.5,1.52217
9373,45.7744,15034.4,1.52407
9386,45.8379,15059.6,1.52755
9399,45.9014,15061.3,1.52768
9412,45.9648,15070.9,1.53007
9425,46.02832,15117.9,1.53277
9438,46.0918,15130.8,1.53475
9451,46.1553,15153.6,1.53757
9464,46.21875,15173.3,1.53936
9477,46.2822,15200.1,1.54195
9490,46.3457,15224.7,1.54396
9503,46.40918,15236,1.546248
9516,46.4727,15248.6,1.54672
9529,46.5361,15278.8,1.55178
9542,46.5996,15282.1,1.55229
9555,46.6631,15314.8,1.5545
9568,46.7266,15331.5,1.55724
9581,46.79,15359.2,1.55779
9594,46.8535,15383.6,1.55982
9607,46.917,15410,1.56298
9620,46.9805,15412.9,1.5649
9633,47.0439,15437.6,1.56692
9646,47.1074,15479.5,1.56886
9659,47.1709,15475.9,1.57086
9672,47.2344,15512.8,1.57393
9685,47.2979,15527,1.57544
9698,47.3613,15550.8,1.57706
9711,47.4248,15571.5,1.57906
9724,47.4883,15577.7,1.581
9737,47.5518,15610.1,1.58327
9750,47.6152,15641.2,1.58638
9763,47.6787,15650.1,1.58777
9776,47.7422,15669,1.59152
9789,47.8057,15703.6,1.592544
9802,47.8691,15720,1.59365
9815,47.9326,15740.4,1.596234
9828,47.9961,15729.9,1.59949
9841,48.05957,15768.1,1.60018
9854,48.123,15799.4,1.60347
9867,48.1865,15816.4,1.60315
9880,48.25,15842.2,1.60787
9893,48.3135,15859.4,1.60955
9906,48.377,15862.8,1.61118
9919,48.44043,15913.1,1.61428
9932,48.5039,15909.6,1.61433
9945,48.5674,15938.9,1.61692
9958,48.6309,15974.5,1.61994
9971,48.6943,15985.4,1.62281
9984,48.7578,15990.6,1.62406
9997,48.8213,16031.4,1.62406
10010,48.8848,16043.4,1.6284
10023,48.9482,16061.1,1.6296
10036,49.0117,16085.1,1.63273
10049,49.0752,16100.3,1.6336
10062,49.1387,16134.7,1.63755
10075,49.2021,16142.3,1.63869
10088,49.2656,16165.4,1.64031
10101,49.3291,16184,1.64421
10114,49.3926,16196.1,1.64423
10127,49.4561,16239,1.64665
10140,49.5195,16248.1,1.64967
10153,49.583,16255.4,1.65147
10166,49.6465,16294.1,1.65388
10179,49.71,16319.2,1.65467
10192,49.7734,16336.4,1.65744
10205,49.8369,16349.5,1.659735
10218,49.9004,16357.5,1.66126
10231,49.9639,16396.4,1.66377
10244,50.0273,16406.9,1.66791
10257,50.09082,16435.6,1.6684
10270,50.1543,16451.4,1.669561
10283,50.2178,16467.9,1.67242
10296,50.28125,16497.6,1.67382
10309,50.3447,16516.7,1.67587
10322,50.4082,16539.2,1.67827
10335,50.47168,16545,1.68158
10348,50.5352,16575,1.682
10361,50.5986,16600.1,1.68259
10374,50.6621,16631.4,1.68735
10387,50.7256,16646,1.68931
10400,50.7891,16658.8,1.69305
10413,50.8525,16686.6,1.69361
10426,50.916,16717,1.69494
10439,50.9795,16715.6,1.69705
10452,51.043,16737.6,1.69985
10465,51.1064,16766.9,1.70054
10478,51.1699,16786.4,1.70405
10491,51.2334,16827.6,1.70607
10504,51.2969,16812.4,1.7081
10517,51.3604,16822.7,1.71061
10530,51.4238,16873.4,1.71347
10543,51.4873,16881.3,1.71404
10556,51.5508,16912.1,1.7175
10569,51.6143,16927.8,1.71773
10582,51.6777,16944.1,1.71979
10595,51.7412,16973.9,1.72278
10608,51.8047,16975.2,1.72526
10621,51.8682,17009,1.72642
10634,51.9316,17035.6,1.72867
10647,51.9951,17049.9,1.73075
10660,52.0586,17077.1,1.73295
10673,52.12207,17089.6,1.73545
10686,52.1855,17084,1.7384
10699,52.249,17146.9,1.74028
10712,52.3125,17161.2,1.74203
10725,52.376,17180,1.74433
10738,52.4395,17196.1,1.74816
10751,52.5029,17218.5,1.74879
10764,52.5664,17230.5,1.75057
10777,52.6299,17259.3,1.75278
10790,52.6934,17286.4,1.75454
10803,52.7568,17302.3,1.75599
10816,52.8203,17333,1.75906
10829,52.8838,17331.3,1.76178
10842,52.9473,17364.3,1.7627
10855,53.0107,17387.5,1.76495
10868,53.0742,17387.6,1.7658
10881,53.1377,17421.2,1.77022
10894,53.2012,17446.8,1.77134
10907,53.2646,17458.1,1.77338
10920,53.3281,17494.2,1.77797
10933,53.3916,17489,1.77518
10946,53.4551,17537,1.779916
10959,53.5186,17563.8,1.78167
10972,53.582,17569.2,1.78356
10985,53.6455,17594.2,1.78641
10998,53.709,17601.5,1.78818
11011,53.7725,17626.1,1.79127
11024,53.8359,17648.5,1.79368
11037,53.8994,17673.4,1.795606
11050,53.9629,17696.8,1.79753
11063,54.0264,17708.3,1.79799
11076,54.0898,17724.6,1.79959
11089,54.1533,17755.9,1.80295
11102,54.2168,17782.9,1.80527
11115,54.2803,17794.9,1.80757
11128,54.34375,17819.9,1.81008
11141,54.4072,17839.3,1.81126
11154,54.4707,17862.5,1.81452
11167,54.5342,17889.9,1.81499
11180,54.5977,17865,1.81819
11193,54.6611,17913.9,1.82118
11206,54.7246,17946.9,1.8226
11219,54.7881,17956.9,1.82473
11232,54.8516,17990.7,1.827522
11245,54.915,17991.6,1.82727
11258,54.9785,18007.9,1.82956
11271,55.042,18052.5,1.83201
11284,55.1055,18055.4,1.83532
11297,55.1689,18072.8,1.83741
11310,55.2324,18110.8,1.8397
11323,55.2959,18134.1,1.8421
11336,55.3594,18148.6,1.84366
11349,55.4229,18168.1,1.847621
11362,55.4863,18196.2,1.84722
11375,55.5498,18198.1,1.84966
11388,55.6133,18234.4,1.85152
11401,55.6768,18253.2,1.85416
11414,55.7402,18268.8,1.85568
11427,55.8037,18296.2,1.85811
11440,55.8672,18321.2,1.86089
11453,55.9307,18341,1.8641
11466,55.9941,18348.9,1.86424
11479,56.0576,18363.4,1.86749
11492,56.1211,18392.3,1.86986
11505,56.1846,18423,1.87134
11518,56.248,18438.8,1.87472
11531,56.3115,18460.7,1.87521
11544,56.375,18464,1.87731
11557,56.4385,18491.1,1.87921
11570,56.502,18506,1.88106
11583,56.5654,18515.2,1.88391
11596,56.6289,18563.4,1.88553
11609,56.6924,18555.4,1.88867
11622,56.7559,18605.6,1.88955
11635,56.8193,18620.9,1.89245
11648,56.8828,18643.6,1.89381
11661,56.9463,18667.5,1.89757
11674,57.0098,18686.7,1.89846
11687,57.0732,18699.3,1.8996
11700,57.1367,18719.9,1.90305
11713,57.2002,18743.4,1.90515
11726,57.2637,18771.4,1.90678
11739,57.3271,18792.8,1.90885
11752,57.3906,18795.4,1.91073
11765,57.4541,18826,1.91206
11778,57.5176,18856,1.91695
11791,57.5811,18865.3,1.91627
11804,57.6445,18882.5,1.92137
11817,57.708,18917.5,1.922339
11830,57.7715,18926.2,1.92382
11843,57.835,18955.9,1.92674
11856,57.8984,18962.6,1.92778
11869,57.9619,18973.6,1.92958
11882,58.0254,19021.1,1.9328
11895,58.0889,19032.8,1.93407
11908,58.1523,19043.1,1.93701
11921,58.2158,19085,1.9381
11934,58.2793,19087.7,1.94112
11947,58.3428,19122.4,1.94245
11960,58.40625,19141.9,1.94576
11973,58.4697,19153.9,1.94721
11986,58.5332,19191.8,1.94902
11999,58.5967,19178.4,1.95132
12012,58.6602,19210.9,1.95377
12025,58.7236,19252.2,1.95563
12038,58.7871,19268,1.95752
12051,58.8506,19281.6,1.96032
12064,58.9141,19308.6,1.96302
12077,58.9775,19317.9,1.96429
12090,59.041,19353.5,1.96615
12103,59.1045,19368.4,1.96797
12116,59.168,19385.3,1.9701
12129,59.2314,19418,1.9737
12142,59.2949,19429.3,1.97543
12155,59.3584,19457,1.97579
12168,59.4219,19477.5,1.97887
12181,59.4854,19462.5,1.98127
12194,59.5488,19518.4,1.98448
12207,59.6123,19542.7,1.98542
12220,59.6758,19555,1.98687
12233,59.7393,19579.6,1.99028
12246,59.8027,19606.8,1.99123
12259,59.8662,19622.6,1.9927
12272,59.9297,19629,1.99722
12285,59.9932,19662.3,1.99793
12298,60.0566,19684.8,2.00198
12311,60.1201,19684,2.00061
12324,60.1836,19709.9,2.00538
12337,60.2471,19735,2.00616
12350,60.3105,19759.9,2.00879
12363,60.374,19785.3,2.01034
12376,60.4375,19805.4,2.01296
12389,60.501,19827.1,2.0177
12402,60.5645,19845.6,2.01713
12415,60.6279,19868.6,2.01926
12428,60.6914,19871.6,2.01941
12441,60.7549,19912.1,2.02404
12454,60.8184,19920.8,2.02471
12467,60.8818,19933.1,2.02743
12480,60.9453,19968.2,2.031388
12493,61.0088,19997.6,2.03251
12506,61.0723,19991.4,2.03463
12519,61.1357,20030.9,2.03722
12532,61.1992,20047.3,2.03783
12545,61.2627,20063.5,2.04006
12558,61.3262,20099.7,2.04259
12571,61.3896,20108.2,2.04416
12584,61.4531,20136.8,2.04659
12597,61.5166,20138.9,2.0492
12610,61.5801,20161.8,2.0518
12623,61.6436,20188.6,2.05327
12636,61.707,20212,2.05453
12649,61.7705,20215.2,2.05661
12662,61.834,20266.1,2.06066
12675,61.8975,20272.3,2.06032
12688,61.9609,20298.8,2.0636
12701,62.0244,20314.7,2.06615
12714,62.0879,20322.9,2.06832
12727,62.1514,20354.5,2.07028
12740,62.2148,20376.7,2.071902
12753,62.2783,20372.7,2.07355
12766,62.3418,20425.5,2.07668
12779,62.4053,20443.2,2.07855
12792,62.46875,20458.4,2.08055
12805,62.5322,20481.2,2.08372
12818,62.5957,20492.2,2.08449
12831,62.6592,20524.7,2.0869
12844,62.7227,20545.1,2.09007
12857,62.7861,20548.1,2.09046
12870,62.8496,20582.2,2.09352
12883,62.9131,20608.8,2.09496
12896,62.9766,20614.7,2.096648
12909,63.04,20646.2,2.101181
12922,63.1035,20659.4,2.10125
12935,63.167,20685.4,2.10312
12948,63.2305,20704.9,2.10597
12961,63.2939,20723.7,2.10741
12974,63.3574,20756.3,2.1098
12987,63.4209,20767.5,2.11149
13000,63.4844,20783.3,2.11317
13013,63.5479,20800.7,2.11747
13026,63.6113,20838.1,2.11827
13039,63.6748,20839.7,2.11896
13052,63.7383,20860.6,2.12301
13065,63.8018,20873.2,2.12359
13078,63.8652,20907.9,2.12764
13091,63.9287,20929.3,2.12914
13104,63.9922,20938.5,2.13089
13117,64.0557,20970.6,2.13406
13130,64.1191,20994,2.13759
13143,64.1826,20996.9,2.13702
13156,64.2461,21030.4,2.14137
13169,64.30957,21051,2.14142
13182,64.373,21057,2.14412
13195,64.4365,21089.9,2.14619
13208,64.5,21111.3,2.14991
13221,64.5635,21116.7,2.14994
13234,64.627,21156.2,2.15197
13247,64.69043,21163,2.15334
13260,64.7539,21200.8,2.15764
13273,64.8174,21208.2,2.15959
13286,64.8809,21217.3,2.16063
13299,64.9443,21254.9,2.16311
13312,65.0078,21267.3,2.166574
13325,65.0713,21291.9,2.16886
13338,65.1348,21306.3,2.16915
13351,65.1982,21333,2.17161
13364,65.2617,21346,2.17272
13377,65.3252,21382.7,2.17692
13390,65.3887,21387.6,2.17768
13403,65.4521,21404.1,2.18121
13416,65.5156,21421.9,2.18161
13429,65.5791,21444.1,2.18401
13442,65.6426,21475.5,2.185837
13455,65.7061,21486.7,2.18809
13468,65.7695,21503.1,2.19043
13481,65.833,21531.2,2.19326
13494,65.8965,21542.9,2.19391
13507,65.96,21574.9,2.19638
13520,66.0234,21593.6,2.2006
13533,66.0869,21615.3,2.20141
13546,66.1504,21629,2.20392
13559,66.2139,21660.2,2.20565
13572,66.2773,21676,2.20687
13585,66.34082,21693.1,2.21163
13598,66.4043,21708.4,2.21021
13611,66.4678,21733.4,2.21371
13624,66.53125,21747.4,2.21803
13637,66.5947,21760.4,2.21592
13650,66.6582,21807.9,2.22049
13663,66.72168,21821.4,2.2248
13676,66.7852,21835.5,2.2244
13689,66.8486,21848.5,2.2272
13702,66.9121,21864.2,2.22867
13715,66.9756,21890.4,2.23084
13728,67.0391,21909.7,2.23263
13741,67.1025,21925.2,2.23601
13754,67.166,21963.9,2.23757
13767,67.2295,21985.6,2.23906
13780,67.293,21981.5,2.24166
13793,67.3564,22005.9,2.24413
13806,67.4199,22038.9,2.24593
13819,67.4834,22053.3,2.2496
13832,67.5469,22082.8,2.24949
13845,67.6104,22091.5,2.25245
13858,67.6738,22119.7,2.254
13871,67.7373,22133.7,2.25695
13884,67.8008,22159.7,2.25944
13897,67.8643,22181.9,2.26055
13910,67.9277,22206.4,2.26321
13923,67.9912,22227.2,2.2653
13936,68.0547,22243.6,2.26729
13949,68.1182,22259.1,2.26864
13962,68.1816,22266.2,2.27158
13975,68.2451,22313.8,2.27296
13988,68.3086,22338.6,2.276088
14001,68.37207,22344,2.27716
14014,68.4355,22357.5,2.28108
14027,68.499,22385.2,2.28161
14040,68.5625,22402.3,2.28406
14053,68.626,22413.5,2.28681
14066,68.6895,22426,2.28802
14079,68.75293,22462,2.29081
14092,68.8164,22477.3,2.29289
14105,68.8799,22485.5,2.29431
14118,68.9434,22534,2.2976
14131,69.0068,22548.7,2.29828
14144,69.0703,22550.4,2.30153
14157,69.1338,22588.3,2.30391
14170,69.1973,22597.6,2.30497
14183,69.2607,22613.2,2.30672
14196,69.3242,22641.5,2.309958
14209,69.3877,22661.2,2.31171
14222,69.4512,22683.4,2.31467
14235,69.5146,22708.1,2.31618
14248,69.5781,22715.4,2.31802
14261,69.6416,22736.8,2.31979
14274,69.7051,22764,2.32094
14287,69.7686,22781.2,2.3244
14300,69.832,22800.1,2.32693
14313,69.8955,22822.9,2.32723
14326,69.959,22840.4,2.32953
14339,70.0225,22872.8,2.332818
14352,70.0859,22875.2,2.33425
14365,70.1494,22896.4,2.3362
14378,70.2129,22927.6,2.33805
14391,70.2764,22928.1,2.34088
14404,70.3398,22959.6,2.34335
14417,70.40332,22991,2.34595
14430,70.4668,23000.6,2.34771
14443,70.5303,23035.1,2.34944
14456,70.59375,23033.4,2.35035
14469,70.6572,23058.7,2.35409
14482,70.7207,23083,2.35531
14495,70.78418,23103.7,2.35659
14508,70.8477,23107.9,2.35929
14521,70.9111,23138.3,2.36123
14534,70.9746,23157.4,2.36277
14547,71.0381,23190,2.36556
14560,71.1016,23207.7,2.36866
14573,71.165,23215.8,2.37079
14586,71.2285,23239.4,2.37243
14599,71.292,23255.1,2.37431
14612,71.3555,23276.1,2.37641
14625,71.4189,23301.9,2.37817
14638,71.4824,23306,2.37914
14651,71.5459,23344.2,2.38168
14664,71.6094,23348.9,2.384944
14677,71.6729,23366.1,2.38651
14690,71.7363,23415.7,2.38967
14703,71.7998,23402.7,2.38918
14716,71.8633,23442.2,2.39283
14729,71.9268,23458,2.39538
14742,71.9902,23480.4,2.39736
14755,72.0537,23511.9,2.39931
14768,72.1172,23516.9,2.40254
14781,72.1807,23522.4,2.40417
14794,72.2441,23566.3,2.40724
14807,72.3076,23582.5,2.40834
14820,72.3711,23586.7,2.41019
14833,72.43457,23618.6,2.41194
14846,72.498,23643.8,2.41369
14859,72.5615,23670.7,2.41695
14872,72.625,23671.5,2.41911
14885,72.6885,23692.3,2.42024
14898,72.752,23728.5,2.42279
14911,72.81543,23740.8,2.42407
14924,72.8789,23753.6,2.42715
14937,72.9424,23783.1,2.42999
14950,73.0059,23792.4,2.430486
14963,73.0693,23823.5,2.43327
14976,73.1328,23844.2,2.43489
14989,73.1963,23831.8,2.436686
15002,73.2598,23872.4,2.44026
15015,73.3232,23902.7,2.4417
15028,73.3867,23899.6,2.44307
15041,73.4502,23934.1,2.44575
15054,73.5137,23956.7,2.44651
15067,73.5771,23980.5,2.4507
15080,73.6406,23995.9,2.45205
15093,73.7041,24020.4,2.45389
15106,73.7676,24028.7,2.45574
15119,73.8311,24065.3,2.46005
15132,73.8945,24078.5,2.45957
15145,73.958,24104.2,2.46389
15158,74.0215,24133.2,2.4656
15171,74.085,24146.3,2.46728
15184,74.1484,24160.3,2.4708
15197,74.2119,24167.9,2.47201
15210,74.2754,24197.7,2.4729
15223,74.3389,24226,2.4753
15236,74.4023,24244.2,2.47763
15249,74.46582,24267.5,2.4812
15262,74.5293,24292.2,2.48213
15275,74.5928,24303.6,2.48373
15288,74.65625,24318.9,2.48683
15301,74.7197,24353.8,2.49017
15314,74.7832,24371.5,2.49144
15327,74.84668,24385.7,2.49202
15340,74.9102,24411.2,2.495189
15353,74.9736,24413.3,2.49787
15366,75.0371,24450.1,2.49868
15379,75.1006,24473,2.5015
15392,75.1641,24478.2,2.503248
15405,75.2275,24508.4,2.50544
15418,75.291,24530.9,2.50788
15431,75.3545,24543.4,2.50955
15444,75.418,24570,2.51137
15457,75.4814,24580.3,2.51384
15470,75.5449,24607.5,2.51509
15483,75.6084,24641.2,2.51765
15496,75.6719,24652.5,2.52143
15509,75.7354,24674.6,2.52285
15522,75.7988,24687.7,2.52487
15535,75.8623,24707.9,2.52739
15548,75.9258,24737.9,2.52985
15561,75.9893,24749.1,2.53096
15574,76.0527,24778.5,2.53332
15587,76.1162,24801.5,2.53505
15600,76.1797,24810.9,2.53694
15613,76.2432,24835.4,2.54051
15626,76.3066,24862.7,2.54073
15639,76.3701,24877.2,2.54395
15652,76.4336,24901.7,2.54618
15665,76.49707,24913.5,2.54823
15678,76.5605,24947.6,2.55136
15691,76.624,24970.9,2.55184
15704,76.6875,24980.9,2.554734
15717,76.751,25008.7,2.55739
15730,76.8145,25030.8,2.56023
15743,76.87793,25039.1,2.56192
15756,76.9414,25067.4,2.5628
15769,77.0049,25093,2.56737
15782,77.0684,25091.7,2.56925
15795,77.1318,25136.9,2.57198
15808,77.1953,25156,2.57289
15821,77.2588,25173.8,2.57578
15834,77.3223,25191.7,2.57767
15847,77.3857,25202.9,2.57898
15860,77.4492,25231.1,2.58147
15873,77.5127,25249,2.58225
15886,77.5762,25261.6,2.584012
15899,77.6396,25289.5,2.58737
15912,77.7031,25302.6,2.59
15925,77.7666,25323.3,2.59262
15938,77.8301,25347.4,2.5939
15951,77.8936,25361.3,2.5956
15964,77.957,25372,2.59749
15977,78.0205,25405.7,2.6005
15990,78.084,25415.9,2.60127
16003,78.1475,25450.7,2.60325
16016,78.2109,25448.5,2.6049
16029,78.2744,25473.6,2.6074
16042,78.3379,25501.8,2.61176
16055,78.4014,25527,2.61213
16068,78.4648,25539.6,2.61466
16081,78.52832,25556,2.61621
16094,78.5918,25578.4,2.618907
16107,78.6553,25601.5,2.61942
16120,78.71875,25613.6,2.62235
16133,78.7822,25631.7,2.62417
16146,78.8457,25657.6,2.62656
16159,78.90918,25674.1,2.62855
16172,78.9727,25692.3,2.6319
16185,79.0361,25713.6,2.63469
16198,79.0996,25731.9,2.63454
16211,79.1631,25751.8,2.63628
16224,79.2266,25773.1,2.63987
16237,79.29,25798.5,2.64278
16250,79.3535,25816,2.6434
16263,79.417,25843.4,2.64603
16276,79.4805,25831.9,2.64822
16289,79.5439,25877.3,2.64947
16302,79.6074,25892.3,2.65176
16315,79.6709,25900.4,2.65367
16328,79.7344,25929.7,2.65609
16341,79.7979,25924.6,2.658
16354,79.8613,25963.5,2.65901
16367,79.9248,25992.4,2.66184
16380,79.9883,25994.8,2.66454
16393,80.0518,26024.5,2.66743
16406,80.1152,26052.4,2.66829
16419,80.1787,26071.3,2.67057
16432,80.2422,26095.3,2.67313
16445,80.3057,26106.7,2.67429
16458,80.3691,26121.4,2.675957
16471,80.4326,26146.7,2.67882
16484,80.4961,26155.1,2.67982
16497,80.55957,26187.5,2.68402
16510,80.623,26212.1,2.68562
16523,80.6865,26214.6,2.68661
16536,80.75,26246.1,2.69018
16549,80.8135,26259,2.69109
16562,80.877,26282.7,2.69405
16575,80.94043,26302.6,2.69628
16588,81.0039,26327,2.69714
16601,81.0674,26333.6,2.7004
16614,81.1309,26354.3,2.7023
16627,81.1943,26381.3,2.70287
16640,81.2578,26401,2.70745
16653,81.3213,26423,2.70713
16666,81.3848,26443.9,2.70981
16679,81.4482,26466.8,2.71328
16692,81.5117,26482.7,2.71558
16705,81.5752,26494.9,2.71721
16718,81.6387,26521.2,2.7176
16731,81.7021,26546.8,2.72002
16744,81.7656,26553.3,2.723
16757,81.8291,26585.2,2.72586
16770,81.8926,26609,2.72818
16783,81.9561,26628.7,2.730521
16796,82.0195,26638.9,2.73191
16809,82.083,26661.7,2.73331
16822,82.1465,26684.5,2.73678
16835,82.21,26701,2.73838
16848,82.2734,26722.4,2.73965
16861,82.3369,26744.3,2.742568
16874,82.4004,26772.3,2.74472
16887,82.4639,26779.6,2.74465
16900,82.5273,26810,2.74965
16913,82.59082,26816.9,2.75016
16926,82.6543,26844.3,2.7522
16939,82.7178,26881.2,2.75568
16952,82.78125,26877.1,2.75761
16965,82.8447,26896.9,2.76047
16978,82.9082,26924.4,2.76242
16991,82.97168,26937,2.76325
17004,83.0352,26973.8,2.76571
17017,83.0986,26987.1,2.76779
17030,83.1621,26992.7,2.76939
17043,83.2256,27033.3,2.77205
17056,83.2891,27047.9,2.77351
17069,83.3525,27065,2.7766
17082,83.416,27098,2.77891
17095,83.4795,27106,2.78089
17108,83.543,27124.1,2.78274
17121,83.6064,27135.3,2.78457
17134,83.6699,27169.6,2.78635
17147,83.7334,27170.8,2.78827
17160,83.7969,27202.3,2.79033
17173,83.8604,27212,2.7924
17186,83.9238,27248.8,2.79391
17199,83.9873,27246.8,2.79522
17212,84.0508,27281.6,2.80021
17225,84.1143,27297.1,2.80079
17238,84.1777,27306.6,2.8026
17251,84.2412,27344.4,2.80558
17264,84.3047,27351.2,2.80884
17277,84.3682,27370.1,2.810591
17290,84.4316,27406.7,2.81182
17303,84.4951,27417.3,2.81339
17316,84.5586,27449.3,2.81515
17329,84.62207,27467.4,2.81799
17342,84.6855,27486,2.82037
17355,84.749,27506.9,2.82343
17368,84.8125,27526.1,2.82642
17381,84.876,27541.3,2.82747
17394,84.9395,27572.2,2.82944
17407,85.00293,27579,2.82939
17420,85.0664,27602.5,2.83273
17433,85.1299,27624.2,2.83532
17446,85.1934,27631.2,2.83571
17459,85.2568,27667.5,2.83934
17472,85.3203,27681.1,2.84175
17485,85.3838,27696.2,2.84325
17498,85.4473,27725.9,2.84623
17511,85.5107,27740.7,2.84798
17524,85.5742,27766.3,2.85044
17537,85.6377,27775.4,2.853632
17550,85.7012,27799.7,2.8539
17563,85.7646,27826.9,2.85669
17576,85.8281,27846,2.85823
17589,85.8916,27832,2.86061
17602,85.9551,27886.9,2.8635
17615,86.0186,27898.9,2.86474
17628,86.082,27913.2,2.86659
17641,86.1455,27953,2.86937
17654,86.209,27967.2,2.87125
17667,86.2725,27971.1,2.87299
17680,86.3359,27993.5,2.87421
17693,86.3994,28019.7,2.87891
17706,86.4629,28038.2,2.8795
17719,86.5264,28055.6,2.88243
17732,86.5898,28067,2.88294
17745,86.65332,28093.7,2.88595
17758,86.7168,28114.4,2.88758
17771,86.7803,28117.2,2.88792
17784,86.84375,28154.9,2.89249
17797,86.9072,28169,2.893554
17810,86.9707,28190.6,2.89588
17823,87.03418,28217,2.8982
17836,87.0977,28226.6,2.89979
17849,87.1611,28244.9,2.90407
17862,87.2246,28276.6,2.90537
17875,87.2881,28284.1,2.906214
17888,87.3516,28308.3,2.90833
17901,87.415,28329.3,2.9113
17914,87.4785,28349.2,2.91286
17927,87.542,28369.6,2.91519
17940,87.6055,28388.4,2.91662
17953,87.6689,28412.8,2.92005
17966,87.7324,28430.9,2.92175
17979,87.7959,28454.9,2.92284
17992,87.8594,28469.6,2.92659
18005,87.9229,28495.5,2.92987
18018,87.9863,28511.2,2.9308
18031,88.0498,28530.4,2.93329
18044,88.1133,28549.8,2.93408
18057,88.1768,28557.2,2.93768
18070,88.2402,28601.1,2.93958
18083,88.3037,28603.3,2.94072
18096,88.3672,28609.7,2.94285
18109,88.4307,28650.4,2.94657
18122,88.4941,28655,2.94743
18135,88.5576,28681.8,2.94924
18148,88.6211,28704.8,2.95177
18161,88.68457,28714.3,2.95452
18174,88.748,28751.9,2.956
18187,88.8115,28778,2.95911
18200,88.875,28775.8,2.959157
18213,88.9385,28803.9,2.96313
18226,89.002,28823.9,2.964216
18239,89.06543,28838.7,2.96611
18252,89.1289,28869.8,2.9692
18265,89.1924,28877.2,2.96947
18278,89.2559,28884,2.97322
18291,89.3193,28899.2,2.9745
18294,89.334,7632.58,3.08041