File: ASM109_2021_data/MTS/UD/MTS_UD_3.csv
,Time [s],Load [N],Displacement [mm]
0,0.0078125,-67.3398,0.00143677
10,0.0566406,-76.6012,-0.000533313
20,0.105469,4.72824,0.00253782
30,0.154297,-8.87144,0.00367641
40,0.203125,30.3872,0.00640199
50,0.251953,45.3533,0.00682533
60,0.300781,50.9925,0.00830054
70,0.349609,65.6667,0.00889465
80,0.3984375,107.484,0.0142841
90,0.447266,104.503,0.0140181
100,0.496094,135.636,0.0151822
110,0.544922,147.091,0.0176382
120,0.59375,174.323,0.0170164
130,0.642578,199.225,0.0223924
140,0.691406,219.265,0.0222664
150,0.740234,197.001,0.0232825
160,0.7890625,248.964,0.0246616
170,0.837891,263.253,0.027236
180,0.886719,271.799,0.027658
190,0.935547,300.135,0.0297479
200,0.984375,320.815,0.03211543
210,1.0332,315.632,0.0332469
220,1.08203,355.968,0.0356832
230,1.13086,380.354,0.0371021
240,1.17969,357.265,0.037782
250,1.22852,410.185,0.0386953
260,1.27734,420.479,0.0421956
270,1.32617,429.349,0.0426279
280,1.375,464.177,0.0440302
290,1.42383,482.563,0.045906
300,1.47266,471.346,0.0456275
310,1.52148,517.75,0.0509472
320,1.57031,519.214,0.0509642
330,1.61914,556.132,0.05410552
340,1.66797,571.807,0.0547881
350,1.7168,586.224,0.0558704
360,1.765625,587.689,0.0563268
370,1.81445,638.246,0.0601181
380,1.86328,615.147,0.0613466
390,1.91211,669.43,0.06234616
400,1.96094,672.162,0.0646538
410,2.00977,695.332,0.0659144
420,2.05859,696.753,0.0660092
430,2.10742,752.063,0.0696981
440,2.15625,730.302,0.0710982
450,2.20508,778.781,0.0718434
460,2.25391,772.449,0.0740308
470,2.30273,808.971,0.0749633
480,2.35156,832.422,0.0771274
490,2.40039,858.091,0.0802101
500,2.44922,847.961,0.0803702
510,2.49805,894.417,0.0829437
520,2.546875,898.66,0.0854006
530,2.5957,922.108,0.0854704
540,2.64453,943.058,0.0870994
550,2.69336,969.67,0.0888357
560,2.74219,964.136,0.0897592
570,2.79102,1003.75,0.0925907
580,2.83984,1000.69,0.0934343
590,2.88867,1000.43,0.0945926
600,2.9375,1056.89,0.0967263
610,2.98633,1076.22,0.0996718
620,3.03516,1065.58,0.0999136
630,3.08398,1111.46,0.102215
640,3.13281,1120.08,0.102477
650,3.18164,1123.98,0.103295
660,3.23047,1178.64,0.1084882
670,3.2793,1129.05,0.106403
680,3.328125,1207.4,0.111079
690,3.37695,1208.17,0.111123
700,3.42578,1217.65,0.112567
710,3.47461,1245.37,0.114622
720,3.52344,1279.83,0.118152
730,3.57227,1271.18,0.11594
740,3.62109,1308.33,0.11869
750,3.66992,1329.01,0.121459
760,3.71875,1339.94,0.123236
770,3.76758,1365.15,0.124514
780,3.81641,1385.45,0.126579
790,3.86523,1374.08,0.126803
800,3.91406,1419.23,0.130971
810,3.96289,1426.59,0.131079
820,4.01172,1453.83,0.131342
830,4.06055,1480.08,0.1346755
840,4.109375,1487.44,0.135734
850,4.1582,1493.49,0.136265
860,4.20703,1539.71,0.139121
870,4.25586,1530.04,0.140071
880,4.30469,1561.92,0.140743
890,4.35352,1584.37,0.144392
900,4.40234,1600.96,0.144956
910,4.45117,1628.73,0.146692
920,4.5,1646.76,0.150099
930,4.54883,1630.45,0.148426
940,4.59766,1686.02,0.152096
950,4.64648,1699.44,0.1537554
960,4.69531,1716.21,0.154707
970,4.74414,1746.33,0.156184
980,4.79297,1747.67,0.156778
990,4.8418,1752.97,0.160048
1000,4.890625,1776.19,0.1605
1010,4.93945,1809.56,0.162973
1020,4.98828,1803.52,0.165049
1030,5.03711,1852.94,0.166106
1040,5.08594,1867.95,0.168129
1050,5.13477,1860.65,0.168476
1060,5.18359,1914.24,0.171078
1070,5.23242,1930.48,0.173767
1080,5.28125,1896.7,0.173986
1090,5.33008,1960.14,0.176136
1100,5.37891,1979.4,0.178017
1110,5.42773,1990.01,0.177269
1120,5.47656,2011.57,0.182316
1130,5.52539,2032.73,0.183244
1140,5.57422,2007.02,0.182925
1150,5.62305,2070.52,0.185444
1160,5.671875,2063.17,0.186298
1170,5.7207,2102.53,0.188742
1180,5.76953,2124.96,0.19179
1190,5.81836,2126.18,0.192427
1200,5.86719,2117.7,0.193224
1210,5.91602,2194.84,0.196428
1220,5.96484,2176.45,0.19664
1230,6.01367,2209.01,0.199656
1240,6.0625,2230.52,0.19921
1250,6.11133,2246.55,0.201371
1260,6.16016,2256.73,0.2032
1270,6.20898,2291.33,0.2069369
1280,6.25781,2276.75,0.206386
1290,6.30664,2321.94,0.207868
1300,6.35547,2347.12,0.2109459
1310,6.4043,2354.41,0.211089
1320,6.453125,2386.66,0.214405
1330,6.50195,2399.3,0.215466
1340,6.55078,2388.76,0.215676
1350,6.59961,2423.87,0.219189
1360,6.64844,2450.39,0.221142
1370,6.69727,2432.43,0.219993
1380,6.74609,2472.3,0.223838
1390,6.79492,2510.99,0.225446
1400,6.84375,2502.25,0.225967
1410,6.89258,2554.75,0.228533
1420,6.94141,2546.29,0.229826
1430,6.99023,2526.5,0.2294755
1440,7.03906,2579.08,0.232659
1450,7.08789,2616.44,0.234751
1460,7.13672,2621.76,0.235909
1470,7.18555,2659.63,0.23962
1480,7.234375,2664.18,0.240536
1490,7.2832,2665.51,0.240518
1500,7.33203,2711.99,0.243351
1510,7.38086,2714.05,0.243566
1520,7.42969,2728.61,0.243847
1530,7.47852,2760.51,0.247939
1540,7.52734,2761.35,0.250582
1550,7.57617,2776.46,0.248577
1560,7.625,2828.96,0.254066
1570,7.67383,2793.46,0.252439
1580,7.72266,2849.22,0.255062
1590,7.77148,2868.65,0.257516
1600,7.82031,2882.21,0.257738
1610,7.86914,2913.3,0.25884
1620,7.91797,2932.62,0.262823
1630,7.9668,2927.81,0.262865
1640,8.015625,2971.18,0.265346
1650,8.06445,2978.08,0.266975
1660,8.11328,2996.18,0.2669625
1670,8.16211,3023.38,0.270048
1680,8.21094,3043.07,0.272409
1690,8.25977,3014.09,0.272598
1700,8.30859,3076.43,0.2753377
1710,8.35742,3075.32,0.277986
1720,8.40625,3101.58,0.277213
1730,8.45508,3127.09,0.278927
1740,8.50391,3142.37,0.28204
1750,8.55273,3149.86,0.2815783
1760,8.60156,3176.32,0.286211
1770,8.65039,3187.44,0.286266
1780,8.69922,3196.72,0.2862905
1790,8.74805,3236.15,0.28927
1800,8.796875,3258.36,0.290437
1810,8.8457,3260.37,0.293
1820,8.89453,3291.58,0.294987
1830,8.94336,3285.38,0.295798
1840,8.99219,3321.97,0.297784
1850,9.04102,3341.96,0.299359
1860,9.08984,3355.36,0.3012608
1870,9.13867,3382.88,0.300913
1880,9.1875,3413.77,0.30464
1890,9.23633,3402.63,0.305505
1900,9.28516,3448.93,0.307975
1910,9.33398,3466.13,0.31058
1920,9.38281,3435.25,0.3105855
1930,9.43164,3495.23,0.312049
1940,9.48047,3521.35,0.315162
1950,9.5293,3520.74,0.315489
1960,9.578125,3544.51,0.31576
1970,9.62695,3569.98,0.318726
1980,9.67578,3545.48,0.32051
1990,9.72461,3606.16,0.323352
2000,9.77344,3612.51,0.323706
2010,9.82227,3625.18,0.324587
2020,9.87109,3668.23,0.327656
2030,9.91992,3680.82,0.329165
2040,9.96875,3678.16,0.327813
2050,10.0176,3718.1,0.331424
2060,10.0664,3710.51,0.33238
2070,10.1152,3741.13,0.336175
2080,10.1641,3772.18,0.337176
2090,10.2129,3788.02,0.338004
2100,10.2617,3768.86,0.34016
2110,10.3105,3833.28,0.343079
2120,10.3594,3813.2,0.343401
2130,10.4082,3866.56,0.345619
2140,10.457,3873.2,0.3474547
2150,10.5059,3890.4,0.348694
2160,10.5547,3893.28,0.347807
2170,10.6035,3945.28,0.353257
2180,10.6523,3902.02,0.351786
2190,10.7012,3970.75,0.354873
2200,10.75,3971.29,0.357333
2210,10.7988,3996.47,0.356762
2220,10.8477,4012.45,0.360705
2230,10.8965,4048.55,0.361115
2240,10.9453,4042.66,0.363476
2250,10.9941,4077.89,0.3636767
2260,11.043,4087.03,0.3663817
2270,11.0918,4087.83,0.365952
2280,11.1406,4141.15,0.369445
2290,11.1895,4150.41,0.370405
2300,11.2383,4157.97,0.372004
2310,11.2871,4193.73,0.375816
2320,11.3359,4184.8,0.375985
2330,11.3848,4203.04,0.3757453
2340,11.4336,4244.91,0.378145
2350,11.4824,4254.4,0.380414
2360,11.53125,4250.07,0.3819631
2370,11.5801,4304.3,0.383783
2380,11.6289,4310.13,0.384595
2390,11.6777,4337.77,0.387434
2400,11.7266,4358.95,0.389691
2410,11.7754,4343.3,0.390095
2420,11.8242,4386.89,0.392748
2430,11.873,4412.11,0.392915
2440,11.9219,4415.41,0.394285
2450,11.9707,4435.92,0.395656
2460,12.0195,4471.44,0.400123
2470,12.0684,4434.2,0.399479
2480,12.1172,4501.84,0.40271
2490,12.166,4514.84,0.402714
2500,12.2148,4533.55,0.404686
2510,12.2637,4559.2,0.406835
2520,12.3125,4577.71,0.408609
2530,12.3613,4558.98,0.409808
2540,12.4102,4614.04,0.412761
2550,12.459,4617.83,0.412309
2560,12.5078,4637.77,0.4145515
2570,12.5566,4660.45,0.41526
2580,12.6055,4684.39,0.418691
2590,12.6543,4666.8,0.41818
2600,12.7031,4720.1,0.420904
2610,12.752,4729.49,0.423948
2620,12.8008,4746.29,0.423623
2630,12.8496,4770.82,0.425803
2640,12.8984,4798.75,0.428141
2650,12.9473,4809.17,0.428633
2660,12.9961,4832.3,0.430676
2670,13.0449,4832.48,0.434266
2680,13.09375,4861.08,0.433657
2690,13.1426,4880.7,0.435791
2700,13.1914,4899.26,0.43848
2710,13.2402,4917.65,0.440021
2720,13.2891,4947.21,0.4427889
2730,13.3379,4949.65,0.442201
2740,13.3867,4958.23,0.442888
2750,13.4355,5007.67,0.446119
2760,13.4844,4982.12,0.446514
2770,13.5332,5027.17,0.448503
2780,13.582,5051.11,0.449541
2790,13.6309,5066.09,0.452504
2800,13.6797,5081,0.454481
2810,13.7285,5098.06,0.457792
2820,13.7773,5076.86,0.456454
2830,13.8262,5133.34,0.459353
2840,13.875,5158.35,0.46203
2850,13.9238,5160.81,0.461025
2860,13.9727,5198.21,0.46423
2870,14.0215,5203.29,0.46536
2880,14.0703,5199.51,0.466328
2890,14.1191,5249.82,0.469614
2900,14.168,5265.08,0.470628
2910,14.2168,5280.33,0.470652
2920,14.2656,5302.98,0.473199
2930,14.3145,5325.53,0.47667
2940,14.3633,5300.97,0.476218
2950,14.4121,5371.55,0.478025
2960,14.4609,5357.97,0.480844
2970,14.5098,5393.68,0.481345
2980,14.5586,5413.23,0.483889
2990,14.6074,5422.56,0.485668
3000,14.65625,5428.78,0.48608
3010,14.7051,5480.05,0.48883
3020,14.7539,5474.86,0.48898
3030,14.8027,5502.18,0.492102
3040,14.8516,5530.15,0.492686
3050,14.9004,5539.21,0.494339
3060,14.9492,5549.83,0.495143
3070,14.998,5583.26,0.498759
3080,15.0469,5577.04,0.49803
3090,15.0957,5613.76,0.502648
3100,15.1445,5637.13,0.503066
3110,15.1934,5633.83,0.503925
3120,15.2422,5659.11,0.5067113
3130,15.291,5687.4,0.507633
3140,15.3398,5679.71,0.508837
3150,15.3887,5723.09,0.511381
3160,15.4375,5734.95,0.512618
3170,15.4863,5735.37,0.514433
3180,15.5352,5768.23,0.516707
3190,15.584,5796.65,0.517889
3200,15.6328,5792.75,0.518965
3210,15.6816,5838.49,0.521775
3220,15.7305,5849.04,0.522371
3230,15.7793,5832.45,0.522864
3240,15.8281,5888.33,0.526051
3250,15.877,5889.66,0.526921
3260,15.9258,5915.84,0.529716
3270,15.9746,5941.48,0.531049
3280,16.0234,5928.39,0.531861
3290,16.0723,5976.63,0.534097
3300,16.1211,5998.32,0.53622
3310,16.1699,5963.97,0.536976
3320,16.21875,6038.83,0.540072
3330,16.2676,6050.01,0.539852
3340,16.3164,6073.54,0.542966
3350,16.3652,6070.95,0.540731
3360,16.4141,6103.24,0.5448966
3370,16.4629,6090.58,0.545533
3380,16.5117,6144.85,0.54893
3390,16.5605,6153.36,0.549909
3400,16.6094,6168.74,0.551277
3410,16.6582,6178.12,0.552179
3420,16.707,6212.31,0.555614
3430,16.7559,6204.65,0.555457
3440,16.8047,6255.63,0.557705
3450,16.8535,6247.73,0.559851
3460,16.9023,6262.87,0.559726
3470,16.9512,6298.56,0.562834
3480,17.0,6323.03,0.563282
3490,17.0488,6308.3,0.5652684
3500,17.0977,6365.14,0.568552
3510,17.1465,6351.5,0.569536
3520,17.1953,6358.28,0.570281
3530,17.2441,6416.17,0.573567
3540,17.293,6433.95,0.573866
3550,17.3418,6442.6,0.576231
3560,17.3906,6475.78,0.5787608
3570,17.4395,6472.57,0.578617
3580,17.4883,6505.68,0.580973
3590,17.5371,6530.4,0.582422
3600,17.5859,6527.46,0.583505
3610,17.6348,6551.13,0.585322
3620,17.6836,6592.97,0.588179
3630,17.7324,6583.02,0.588552
3640,17.78125,6616.67,0.591133
3650,17.8301,6646.49,0.592601
3660,17.8789,6592.4,0.593256
3670,17.9277,6673.3,0.595011
3680,17.9766,6694.6,0.597635
3690,18.0254,6702.17,0.598803
3700,18.0742,6730.12,0.601275
3710,18.123,6750.12,0.602185
3720,18.1719,6730.54,0.603058
3730,18.2207,6776.88,0.605503
3740,18.2695,6780.94,0.606841
3750,18.3184,6809.03,0.609299
3760,18.3672,6835.45,0.609058
3770,18.416,6856.02,0.611706
3780,18.4648,6845.4,0.611199
3790,18.5137,6896.25,0.616242
3800,18.5625,6874.27,0.616166
3810,18.6113,6898,0.61623
3820,18.6602,6948.75,0.618809
3830,18.709,6958.72,0.621997
3840,18.7578,6958.24,0.622077
3850,18.8066,7006.34,0.6251049
3860,18.8555,6973.78,0.625349
3870,18.9043,7029,0.627205
3880,18.9531,7050.23,0.629417
3890,19.002,7070.47,0.632033
3900,19.0508,7088.04,0.63357
3910,19.0996,7115.33,0.637234
3920,19.1484,7115.64,0.636331
3930,19.1973,7150.17,0.637729
3940,19.2461,7151.77,0.638489
3950,19.2949,7170.63,0.640822
3960,19.34375,7176.19,0.6435594
3970,19.3926,7212.8,0.646113
3980,19.4414,7214.44,0.6452148
3990,19.4902,7253.37,0.648077
4000,19.5391,7265.54,0.6510964
4010,19.5879,7231.81,0.648946
4020,19.6367,7305.21,0.652172
4030,19.6855,7323.97,0.654026
4040,19.7344,7339.78,0.655637
4050,19.7832,7361.66,0.657352
4060,19.832,7377.57,0.658955
4070,19.8809,7383.44,0.660241
4080,19.9297,7417.34,0.662042
4090,19.9785,7435.12,0.664134
4100,20.0273,7436.45,0.664577
4110,20.0762,7479.76,0.6680851
4120,20.125,7486.17,0.670989
4130,20.1738,7494.33,0.668898
4140,20.2227,7526.56,0.67161
4150,20.2715,7508.69,0.674312
4160,20.3203,7556.46,0.674657
4170,20.3691,7576.03,0.676879
4180,20.418,7576.01,0.678677
4190,20.4668,7579.7,0.679054
4200,20.5156,7642.73,0.682594
4210,20.5645,7603.99,0.682765
4220,20.6133,7669.72,0.683575
4230,20.6621,7661.23,0.685789
4240,20.7109,7706.88,0.6875025
4250,20.7598,7706.45,0.688132
4260,20.8086,7737.11,0.691794
4270,20.8574,7745.32,0.692156
4280,20.90625,7774.98,0.6951195
4290,20.9551,7785.96,0.696332
4300,21.0039,7797.21,0.697591
4310,21.0527,7817.92,0.699815
4320,21.1016,7847.29,0.7018317
4330,21.1504,7837.03,0.702555
4340,21.1992,7884.12,0.70505
4350,21.248,7890.79,0.706247
4360,21.2969,7909.76,0.70673
4370,21.3457,7935.19,0.709357
4380,21.3945,7937.86,0.711258
4390,21.4434,7961.5,0.711611
4400,21.4922,7998.02,0.715304
4410,21.541,7997.35,0.7152195
4420,21.5898,8019.25,0.7181105
4430,21.6387,8049.82,0.719368
4440,21.6875,8059.57,0.72222
4450,21.7363,8066.36,0.721966
4460,21.7852,8108.57,0.7254
4470,21.834,8102.96,0.7254
4480,21.8828,8129.7,0.727659
4490,21.9316,8147.21,0.729789
4500,21.9805,8164.97,0.730235
4510,22.0293,8193.63,0.733217
4520,22.0781,8210.73,0.733626
4530,22.127,8215.34,0.73699
4540,22.1758,8237.32,0.737501
4550,22.2246,8254.04,0.739114
4560,22.2734,8246.41,0.73971
4570,22.3223,8297.22,0.742206
4580,22.3711,8308.69,0.743624
4590,22.4199,8308.14,0.745444
4600,22.46875,8343.51,0.7465893
4610,22.5176,8365.06,0.7488625
4620,22.5664,8342.7,0.7505
4630,22.6152,8409.06,0.752471
4640,22.6641,8415.23,0.752158
4650,22.7129,8426.54,0.754608
4660,22.7617,8452.22,0.75647
4670,22.8105,8458.22,0.756741
4680,22.8594,8471.18,0.758636
4690,22.9082,8518.41,0.762815
4700,22.957,8522.84,0.762846
4710,23.0059,8536.3,0.763628
4720,23.0547,8557.4,0.766991
4730,23.1035,8578.02,0.768441
4740,23.1523,8581.93,0.768996
4750,23.2012,8610.13,0.772415
4760,23.25,8626.65,0.771269
4770,23.2988,8655.23,0.775319
4780,23.3477,8672.43,0.776262
4790,23.3965,8675.27,0.778244
4800,23.4453,8703.86,0.7775259
4810,23.4941,8728.71,0.780956
4820,23.543,8704.97,0.78221
4830,23.5918,8752.8,0.783365
4840,23.6406,8781.44,0.787097
4850,23.6895,8771.06,0.786491
4860,23.7383,8821.07,0.788795
4870,23.7871,8834.7,0.790804
4880,23.8359,8835.6,0.791251
4890,23.8848,8868.8,0.793642
4900,23.9336,8875.03,0.795474
4910,23.9824,8900.35,0.798175
4920,24.03125,8922.45,0.799685
4930,24.0801,8936.48,0.800366
4940,24.1289,8925.02,0.8012594
4950,24.1777,8975.44,0.802747
4960,24.2266,8976.11,0.805519
4970,24.2754,8976.93,0.806113
4980,24.3242,9035.41,0.809589
4990,24.373,9045.13,0.810122
5000,24.4219,9069.98,0.812257
5010,24.4707,9081.18,0.814142
5020,24.5195,9089.47,0.813707
5030,24.5684,9097.01,0.81597
5040,24.6172,9141.29,0.821066
5050,24.666,9134.57,0.819029
5060,24.7148,9167.94,0.822226
5070,24.7637,9192.93,0.823524
5080,24.8125,9209.04,0.824174
5090,24.8613,9200.92,0.8257587
5100,24.9102,9242.51,0.829373
5110,24.959,9254.56,0.828624
5120,25.0078,9286.54,0.832672
5130,25.0566,9294.87,0.832379
5140,25.1055,9312.33,0.834581
5150,25.1543,9337.01,0.836395
5160,25.2031,9363.91,0.838518
5170,25.252,9323.39,0.838704
5180,25.3008,9402.88,0.842528
5190,25.3496,9387.59,0.8429383
5200,25.3984,9412.83,0.844178
5210,25.4473,9441.52,0.845981
5220,25.4961,9463.71,0.848483
5230,25.5449,9457.36,0.847607
5240,25.59375,9498.57,0.851681
5250,25.6426,9505.14,0.853533
5260,25.6914,9521.98,0.852748
5270,25.7402,9554.79,0.855747
5280,25.7891,9567.11,0.8569001
5290,25.8379,9587.42,0.859444
5300,25.8867,9605.48,0.861736
5310,25.9355,9604.58,0.862664
5320,25.9844,9624.05,0.863777
5330,26.0332,9664.48,0.866654
5340,26.082,9669.95,0.867384
5350,26.1309,9696.4,0.86978
5360,26.1797,9709.57,0.870613
5370,26.2285,9730.15,0.871713
5380,26.2773,9746.57,0.873878
5390,26.3262,9779.88,0.877036
5400,26.375,9756.67,0.876232
5410,26.4238,9809.69,0.880383
5420,26.4727,9812.97,0.87938
5430,26.5215,9834.74,0.882403
5440,26.5703,9848.61,0.883229
5450,26.6191,9870.42,0.887272
5460,26.668,9845.28,0.886763
5470,26.7168,9922.47,0.88953
5480,26.7656,9914.17,0.8884232
5490,26.8145,9937.95,0.892624
5500,26.8633,9969.39,0.893487
5510,26.9121,9986.56,0.895449
5520,26.9609,9980.36,0.896241
5530,27.0098,10025.4,0.89843
5540,27.0586,10025.6,0.899625
5550,27.1074,10056.9,0.901981
5560,27.15625,10073.7,0.903261
5570,27.2051,10095.3,0.9043926
5580,27.2539,10092.2,0.906562
5590,27.3027,10132.5,0.909184
5600,27.3516,10118.9,0.910486
5610,27.4004,10170.4,0.91136
5620,27.4492,10184.9,0.913729
5630,27.498,10203.8,0.915316
5640,27.5469,10212.6,0.916345
5650,27.5957,10255.7,0.919829
5660,27.6445,10220.4,0.919822
5670,27.6934,10258.3,0.9201
5680,27.7422,10293.7,0.923562
5690,27.791,10297,0.922282
5700,27.8398,10322.6,0.925249
5710,27.8887,10351.6,0.927607
5720,27.9375,10338.9,0.929663
5730,27.9863,10384,0.930166
5740,28.0352,10390.5,0.933635
5750,28.084,10397.8,0.932471
5760,28.1328,10433,0.935583
5770,28.1816,10457.5,0.937511
5780,28.2305,10450.6,0.939085
5790,28.2793,10496.1,0.94073
5800,28.3281,10505.7,0.943216
5810,28.377,10481.6,0.943441
5820,28.4258,10547.4,0.94625
5830,28.4746,10543,0.946844
5840,28.5234,10565,0.947801
5850,28.5723,10589.4,0.95013
5860,28.6211,10595.7,0.953236
5870,28.6699,10627,0.953619
5880,28.71875,10651.2,0.955887
5890,28.7676,10665.3,0.955999
5900,28.8164,10677.9,0.959019
5910,28.8652,10704.9,0.959894
5920,28.9141,10711.8,0.962954
5930,28.9629,10741.1,0.9628
5940,29.0117,10766,0.964978
5950,29.0605,10747.8,0.965623
5960,29.1094,10790.9,0.968587
5970,29.1582,10809.7,0.97029
5980,29.207,10825.7,0.971784
5990,29.2559,10840.6,0.972923
6000,29.3047,10874.3,0.976447
6010,29.3535,10836.4,0.976269
6020,29.4023,10912.7,0.977444
6030,29.4512,10912.3,0.978229
6040,29.5,10926.6,0.980562
6050,29.5488,10944.8,0.982125
6060,29.5977,10965.7,0.984849
6070,29.6465,10956,0.984674
6080,29.6953,11008.6,0.988389
6090,29.7441,11008.9,0.989865
6100,29.793,10998.5,0.989358
6110,29.8418,11059.8,0.992404
6120,29.8906,11070.1,0.994571
6130,29.9395,11081.9,0.995694
6140,29.9883,11116.1,0.997492
6150,30.0371,11090.1,0.999117
6160,30.0859,11117.3,0.997997
6170,30.1348,11166.3,1.00301
6180,30.1836,11172.4,1.00273
6190,30.2324,11186.3,1.00414
6200,30.28125,11226,1.00814
6210,30.3301,11227.5,1.00862
6220,30.3789,11250.7,1.00915
6230,30.4277,11284.7,1.01231
6240,30.4766,11257.1,1.01268
6250,30.5254,11300.8,1.01592
6260,30.5742,11327.7,1.01601
6270,30.623,11342.6,1.01844
6280,30.6719,11354,1.01911
6290,30.7207,11390.5,1.02264
6300,30.7695,11336,1.02354
6310,30.8184,11415.4,1.02493
6320,30.8672,11435.1,1.02663
6330,30.916,11439.5,1.02724
6340,30.9648,11459.4,1.02832
6350,31.0137,11494.4,1.03194
6360,31.0625,11478.6,1.032827
6370,31.1113,11524.2,1.03585
6380,31.1602,11538.5,1.03608
6390,31.209,11545.1,1.03919
6400,31.2578,11579.5,1.0393
6410,31.3066,11604.4,1.04123
6420,31.3555,11585.6,1.04293
6430,31.4043,11639.4,1.04561
6440,31.4531,11626.3,1.04502
6450,31.502,11667.5,1.04643
6460,31.5508,11686,1.04994
6470,31.5996,11706.1,1.05158
6480,31.6484,11714.6,1.05234
6490,31.6973,11751.5,1.05537
6500,31.7461,11736.2,1.05535
6510,31.7949,11785,1.05721
6520,31.84375,11792,1.05906
6530,31.8926,11805,1.06183
6540,31.9414,11823.8,1.06165
6550,31.9902,11852.6,1.0648
6560,32.0391,11850.6,1.06597
6570,32.0879,11887.4,1.06663
6580,32.1367,11906.9,1.06942
6590,32.1855,11922.6,1.0711
6600,32.2344,11929.9,1.07216
6610,32.2832,11961.3,1.07457
6620,32.332,11957.7,1.074927
6630,32.3809,11997,1.0771
6640,32.4297,12008.1,1.07964
6650,32.4785,12025,1.07995
6660,32.5273,12041.6,1.081046
6670,32.5762,12058.5,1.083962
6680,32.625,12063.5,1.08581
6690,32.6738,12101.4,1.08693
6700,32.7227,12109.4,1.08873
6710,32.7715,12120,1.09011
6720,32.8203,12163.7,1.09369
6730,32.8691,12174,1.09377
6740,32.918,12176.4,1.09424
6750,32.9668,12203.6,1.09893
6760,33.0156,12227.5,1.09794
6770,33.0645,12209.6,1.10004
6780,33.1133,12261.3,1.1028
6790,33.1621,12262.4,1.10232
6800,33.2109,12289.1,1.10332
6810,33.2598,12307.8,1.10531
6820,33.3086,12333,1.10838
6830,33.3574,12317.9,1.10847
6840,33.40625,12371.9,1.11298
6850,33.4551,12361.6,1.11226
6860,33.5039,12398.8,1.11581
6870,33.5527,12403.7,1.11696
6880,33.6016,12437,1.11777
6890,33.6504,12450.2,1.11918
6900,33.6992,12474.4,1.12242
6910,33.748,12473.5,1.12239
6920,33.7969,12516.7,1.12514
6930,33.8457,12516.7,1.12695
6940,33.8945,12531.2,1.12635
6950,33.9434,12549.9,1.12993
6960,33.9922,12570.2,1.13049
6970,34.041,12585,1.13184
6980,34.0898,12613.3,1.13414
6990,34.1387,12605.6,1.1367
7000,34.1875,12603.6,1.13584
7010,34.2363,12665.2,1.13989
7020,34.2852,12683,1.14026
7030,34.334,12697.7,1.14207
7040,34.3828,12724.3,1.14469
7050,34.4316,12739.2,1.14565
7060,34.4805,12749.3,1.14627
7070,34.5293,12778.1,1.14849
7080,34.5781,12787.3,1.14964
7090,34.627,12811.1,1.15314
7100,34.6758,12842.6,1.1557
7110,34.7246,12808.8,1.15565
7120,34.7734,12830.2,1.15488
7130,34.8223,12894,1.15992
7140,34.8711,12879.3,1.1593
7150,34.9199,12924.8,1.16315
7160,34.96875,12927.7,1.1623
7170,35.0176,12938.5,1.1647
7180,35.0664,12973.5,1.16617
7190,35.1152,12995,1.16987
7200,35.1641,12971.2,1.16949
7210,35.2129,13028.1,1.17371
7220,35.2617,13035.6,1.17402
7230,35.3105,13049.1,1.17421
7240,35.3594,13079.4,1.17645
7250,35.4082,13103.6,1.1793
7260,35.457,13089.1,1.18008
7270,35.5059,13135.3,1.1814
7280,35.5547,13126.2,1.1833
7290,35.6035,13169.1,1.18485
7300,35.6523,13180.3,1.18611
7310,35.7012,13206.9,1.18667
7320,35.75,13179.3,1.18951
7330,35.7988,13251.7,1.19184
7340,35.8477,13252.4,1.19301
7350,35.8965,13266.7,1.19456
7360,35.9453,13289.8,1.19636
7370,35.9941,13313.5,1.19909
7380,36.043,13328.4,1.19822
7390,36.0918,13351.7,1.20282
7400,36.1406,13342.7,1.2032
7410,36.1895,13385,1.20577
7420,36.2383,13396.7,1.20578
7430,36.2871,13412.8,1.20798
7440,36.3359,13426.9,1.20999
7450,36.3848,13456.4,1.21125
7460,36.4336,13445.3,1.21295
7470,36.4824,13474.2,1.2125
7480,36.53125,13504.7,1.21678
7490,36.5801,13505.9,1.21739
7500,36.6289,13548.3,1.21959
7510,36.6777,13567.5,1.22185
7520,36.7266,13564.9,1.22263
7530,36.7754,13594.6,1.224
7540,36.8242,13604.9,1.22623
7550,36.873,13598.1,1.22732
7560,36.9219,13653.4,1.2298
7570,36.9707,13663.5,1.23146
7580,37.0195,13673.8,1.23225
7590,37.0684,13696.4,1.23372
7600,37.1172,13716.4,1.23568
7610,37.166,13700.7,1.23666
7620,37.2148,13754.4,1.23926
7630,37.2637,13751.5,1.24218
7640,37.3125,13791.4,1.24135
7650,37.3613,13794.1,1.24139
7660,37.4102,13824.3,1.24477
7670,37.459,13825.4,1.24624
7680,37.5078,13866.9,1.24869
7690,37.5566,13867.1,1.24921
7700,37.6055,13890.5,1.25076
7710,37.6543,13917.5,1.25342
7720,37.7031,13927.6,1.25506
7730,37.752,13939.5,1.25607
7740,37.8008,13974.6,1.25918
7750,37.8496,13966.6,1.259125
7760,37.8984,14006,1.26232
7770,37.9473,13996.2,1.26423
7780,37.9961,14031,1.263442
7790,38.0449,14039.5,1.26676
7800,38.09375,14084.8,1.27033
7810,38.1426,14066.5,1.2694
7820,38.1914,14108.3,1.27217
7830,38.2402,14128.1,1.27411
7840,38.2891,14130.3,1.27443
7850,38.3379,14158.5,1.27611
7860,38.3867,14190,1.27733
7870,38.4355,14169,1.27797
7880,38.4844,14217.6,1.28239
7890,38.5332,14229.6,1.28362
7900,38.582,14247.3,1.28347
7910,38.6309,14270.4,1.28761
7920,38.6797,14272.4,1.28719
7930,38.7285,14295.6,1.28892
7940,38.7773,14324.8,1.29177
7950,38.8262,14335.3,1.29212
7960,38.875,14355.8,1.29379
7970,38.9238,14380,1.29775
7980,38.9727,14349.2,1.29708
7990,39.0215,14412.3,1.29999
8000,39.0703,14430.4,1.300229
8010,39.1191,14435.7,1.30155
8020,39.168,14450.4,1.3027
8030,39.2168,14476.5,1.30639
8040,39.2656,14472.7,1.30655
8050,39.3145,14513.9,1.30923
8060,39.3633,14511.8,1.30952
8070,39.4121,14545.9,1.31169
8080,39.4609,14555.4,1.31272
8090,39.5098,14583.1,1.31666
8100,39.5586,14555.1,1.31464
8110,39.6074,14635.3,1.31933
8120,39.65625,14626.4,1.32073
8130,39.7051,14644,1.32063
8140,39.7539,14672.5,1.32242
8150,39.8027,14698.2,1.32644
8160,39.8516,14678.7,1.32601
8170,39.9004,14736.9,1.32862
8180,39.9492,14732.7,1.32958
8190,39.998,14750.6,1.33061
8200,40.0469,14771.4,1.33303
8210,40.0957,14791.4,1.33464
8220,40.1445,14778.3,1.33449
8230,40.1934,14842.9,1.33842
8240,40.2422,14826.7,1.33979
8250,40.291,14855.7,1.33975
8260,40.3398,14882.6,1.34334
8270,40.3887,14900.1,1.34555
8280,40.4375,14919.8,1.345067
8290,40.4863,14938,1.34704
8300,40.5352,14932.9,1.34831
8310,40.584,14955.4,1.35101
8320,40.6328,14983.5,1.3524
8330,40.6816,14977.1,1.35258
8340,40.7305,15018,1.35542
8350,40.7793,15034.2,1.35666
8360,40.8281,15030.6,1.35753
8370,40.877,15065.9,1.359695
8380,40.9258,15084,1.36147
8390,40.9746,15105.8,1.36316
8400,41.0234,15130.7,1.36576
8410,41.0723,15152.5,1.36723
8420,41.1211,15148.5,1.36756
8430,41.1699,15191.2,1.369704
8440,41.21875,15202.2,1.37262
8450,41.2676,15207.1,1.37507
8460,41.3164,15238,1.37558
8470,41.3652,15251.4,1.37719
8480,41.4141,15265.5,1.37795
8490,41.4629,15295.8,1.38047
8500,41.5117,15298.4,1.382
8510,41.5605,15323.3,1.38251
8520,41.6094,15342.8,1.38524
8530,41.6582,15349.6,1.38587
8540,41.707,15377.2,1.38588
8550,41.7559,15404.9,1.38986
8560,41.8047,15381.5,1.390053
8570,41.8535,15427.7,1.39255
8580,41.9023,15449.4,1.39447
8590,41.9512,15441.4,1.39632
8600,42.0,15478.9,1.39724
8610,42.0488,15498.1,1.39982
8620,42.0977,15500.6,1.40032
8630,42.1465,15524,1.40218
8640,42.1953,15545.8,1.40484
8650,42.2441,15539.1,1.40428
8660,42.293,15589.4,1.40689
8670,42.3418,15613.8,1.4103
8680,42.3906,15602.7,1.41023
8690,42.4395,15640.9,1.41191
8700,42.4883,15661.8,1.41463
8710,42.5371,15669.3,1.41528
8720,42.5859,15704.8,1.41812
8730,42.6348,15705.4,1.41942
8740,42.6836,15734,1.42212
8750,42.7324,15747.2,1.42273
8760,42.78125,15772.7,1.42451
8770,42.8301,15784.5,1.42531
8780,42.8789,15822.7,1.42828
8790,42.9277,15803.4,1.42946
8800,42.9766,15818.2,1.43029
8810,43.0254,15855.2,1.43295
8820,43.0742,15876.4,1.43408
8830,43.123,15879.4,1.43419
8840,43.1719,15910.6,1.43784
8850,43.2207,15915.2,1.43858
8860,43.2695,15936.6,1.44028
8870,43.3184,15955.3,1.44245
8880,43.3672,15972.1,1.44349
8890,43.416,15989.4,1.44462
8900,43.4648,16014,1.447227
8910,43.5137,16013.9,1.449818
8920,43.5625,16054.6,1.4498
8930,43.6113,16068.3,1.4524
8940,43.6602,16057.3,1.45151
8950,43.709,16099,1.45494
8960,43.7578,16109.2,1.4567
8970,43.8066,16132.3,1.45877
8980,43.8555,16157.3,1.45852
8990,43.9043,16175.5,1.462453
9000,43.9531,16183.6,1.46338
9010,44.002,16213.3,1.46463
9020,44.0508,16211.9,1.46537
9030,44.0996,16235.8,1.46877
9040,44.1484,16268,1.47003
9050,44.1973,16285.6,1.47146
9060,44.2461,16263.3,1.471983
9070,44.2949,16318.8,1.47411
9080,44.34375,16280.8,1.47658
9090,44.3926,16319.7,1.47736
9100,44.4414,16363.3,1.47837
9110,44.4902,16386.6,1.48256
9120,44.5391,16386.6,1.48165
9130,44.5879,16424,1.48468
9140,44.6367,16412.8,1.4855
9150,44.6855,16452.6,1.48815
9160,44.7344,16469.7,1.48864
9170,44.7832,16479.2,1.49011
9180,44.832,16490.6,1.49106
9190,44.8809,16537.1,1.49415
9200,44.9297,16509.8,1.49445
9210,44.9785,16556.9,1.49785
9220,45.0273,16577.9,1.49936
9230,45.0762,16591,1.4986
9240,45.125,16611.9,1.50056
9250,45.1738,16634.1,1.50473
9260,45.2227,16628.7,1.50406
9270,45.2715,16663,1.50671
9280,45.3203,16687.4,1.50909
9290,45.3691,16676.3,1.50895
9300,45.418,16716.4,1.51158
9310,45.4668,16728.2,1.51334
9320,45.5156,16744,1.51511
9330,45.5645,16781.3,1.51729
9340,45.6133,16789.4,1.51819
9350,45.6621,16792.2,1.51864
9360,45.7109,16831.5,1.52199
9370,45.7598,16837.6,1.523155
9380,45.8086,16858.8,1.52414
9390,45.8574,16874.8,1.52648
9400,45.90625,16880,1.52715
9410,45.9551,16901.3,1.52948
9420,46.0039,16938.3,1.532979
9430,46.0527,16922.7,1.53117
9440,46.1016,16959.1,1.5349
9450,46.1504,16973,1.53642
9460,46.1992,16992.4,1.53707
9470,46.248,17002.8,1.53869
9480,46.2969,17038.5,1.54236
9490,46.3457,17010.4,1.54233
9500,46.3945,17070.2,1.544475
9510,46.4434,17091.3,1.54604
9520,46.4922,17098.1,1.54725
9530,46.541,17111.4,1.54868
9540,46.5898,17149.2,1.55323
9550,46.6387,17126,1.55188
9560,46.6875,17187.7,1.5557
9570,46.7363,17193.3,1.55617
9580,46.7852,17202.8,1.55793
9590,46.834,17226.7,1.55898
9600,46.8828,17251.6,1.561718
9610,46.9316,17227.3,1.56128
9620,46.9805,17287.5,1.56395
9630,47.0293,17293.2,1.56576
9640,47.0781,17306.6,1.5664
9650,47.127,17342.2,1.56931
9660,47.1758,17356.5,1.57087
9670,47.2246,17364.4,1.57182
9680,47.2734,17391.3,1.57513
9690,47.3223,17398.7,1.57495
9700,47.3711,17408.2,1.57709
9710,47.4199,17425,1.5788
9720,47.46875,17444.4,1.58199
9730,47.5176,17466.8,1.58191
9740,47.5664,17499,1.58396
9750,47.6152,17500.6,1.58616
9760,47.6641,17520.7,1.58499
9770,47.7129,17551.2,1.58945
9780,47.7617,17544.8,1.58884
9790,47.8105,17572.3,1.59149
9800,47.8594,17596.5,1.59414
9810,47.9082,17612.5,1.59478
9820,47.957,17629.8,1.59707
9830,48.0059,17657,1.59999
9840,48.0547,17636.2,1.59798
9850,48.1035,17684.2,1.60131
9860,48.1523,17698.5,1.602973
9870,48.2012,17712.7,1.604239
9880,48.25,17735.2,1.60603
9890,48.2988,17753.6,1.60817
9900,48.3477,17754.9,1.60838
9910,48.3965,17800.7,1.61232
9920,48.4453,17807.3,1.61291
9930,48.4941,17819.4,1.61315
9940,48.543,17835.5,1.6159
9950,48.5918,17869.2,1.6183
9960,48.6406,17848.8,1.61771
9970,48.6895,17904.9,1.6228
9980,48.7383,17907.4,1.62262
9990,48.7871,17936.6,1.62331
10000,48.8359,17945.9,1.62498
10010,48.8848,17969,1.6282
10020,48.9336,17974.6,1.62706
10030,48.9824,18016.7,1.6317
10040,49.03125,17999.7,1.63193
10050,49.0801,18038.8,1.634
10060,49.1289,18051.3,1.63654
10070,49.1777,18065,1.63762
10080,49.2266,18081.6,1.63848
10090,49.2754,18115,1.64245
10100,49.3242,18102.5,1.64128
10110,49.373,18144.7,1.64466
10120,49.4219,18136.6,1.64421
10130,49.4707,18175.4,1.64611
10140,49.5195,18182.1,1.64996
10150,49.5684,18215.5,1.65172
10160,49.6172,18206.5,1.65026
10170,49.666,18247.3,1.65508
10180,49.7148,18264.5,1.65545
10190,49.7637,18259.5,1.656636
10200,49.8125,18296.9,1.6574
10210,49.8613,18302.9,1.66057
10220,49.9102,18329.5,1.66208
10230,49.959,18350.6,1.66345
10240,50.0078,18362.7,1.664957
10250,50.0566,18372.6,1.6649
10260,50.1055,18400.7,1.66891
10270,50.1543,18419,1.66958
10280,50.2031,18417,1.670655
10290,50.252,18452.6,1.67253
10300,50.3008,18467.3,1.67407
10310,50.3496,18475.9,1.67487
10320,50.3984,18499.9,1.67927
10330,50.4473,18504.6,1.67837
10340,50.4961,18528.1,1.68174
10350,50.5449,18545.5,1.68186
10360,50.59375,18556.1,1.6841
10370,50.6426,18586,1.68419
10380,50.6914,18613.1,1.68782
10390,50.7402,18593.5,1.68906
10400,50.7891,18645.9,1.69176
10410,50.8379,18653.3,1.69284
10420,50.8867,18664,1.69398
10430,50.9355,18691.3,1.696727
10440,50.9844,18707.1,1.69857
10450,51.0332,18691.3,1.697705
10460,51.082,18746.1,1.70055
10470,51.1309,18763.7,1.70318
10480,51.1797,18771.4,1.7041
10490,51.2285,18788.5,1.70554
10500,51.2773,18818.1,1.70725
10510,51.3262,18800.2,1.70735
10520,51.375,18853.6,1.71029
10530,51.4238,18846,1.71349
10540,51.4727,18877,1.71324
10550,51.5215,18889,1.71461
10560,51.5703,18910.1,1.7179
10570,51.6191,18927.4,1.71953
10580,51.668,18958,1.7194
10590,51.7168,18959.1,1.72144
10600,51.7656,18978.8,1.72371
10610,51.8145,19002.5,1.72609
10620,51.8633,19009.7,1.72648
10630,51.9121,19043.9,1.7274
10640,51.9609,19061.1,1.73045
10650,52.0098,19068.9,1.73108
10660,52.0586,19089.5,1.73362
10670,52.1074,19112.9,1.7362
10680,52.15625,19122.3,1.73687
10690,52.2051,19154,1.740244
10700,52.2539,19164.8,1.74002
10710,52.3027,19173.9,1.74162
10720,52.3516,19204.3,1.741063
10730,52.4004,19224.2,1.74528
10740,52.4492,19208.1,1.74536
10750,52.498,19249.2,1.747714
10760,52.5469,19260,1.749368
10770,52.5957,19279.5,1.751622
10780,52.6445,19311.1,1.75313
10790,52.6934,19317.5,1.75527
10800,52.7422,19326.2,1.75483
10810,52.791,19370.3,1.75842
10820,52.8398,19347.4,1.75969
10830,52.8887,19365.6,1.75953
10840,52.9375,19400.5,1.76257
10850,52.9863,19429,1.76608
10860,53.0352,19418,1.76417
10870,53.084,19463.2,1.76761
10880,53.1328,19468,1.7683
10890,53.1816,19490.8,1.77083
10900,53.2305,19517.8,1.77186
10910,53.2793,19523.1,1.77343
10920,53.3281,19544.4,1.77608
10930,53.377,19572,1.77837
10940,53.4258,19555.9,1.77831
10950,53.4746,19600.4,1.78004
10960,53.5234,19610.2,1.78175
10970,53.5723,19628.9,1.7834
10980,53.6211,19638.3,1.7857
10990,53.6699,19680.9,1.78836
11000,53.71875,19671.3,1.78945
11010,53.7676,19708.1,1.7923
11020,53.8164,19720.2,1.79218
11030,53.8652,19723.3,1.79396
11040,53.9141,19758.1,1.79575
11050,53.9629,19775.4,1.79709
11060,54.0117,19769.7,1.79818
11070,54.0605,19801.4,1.80054
11080,54.1094,19819.4,1.80245
11090,54.1582,19832,1.80273
11100,54.207,19860.5,1.805
11110,54.2559,19862.6,1.8056
11120,54.3047,19880.4,1.80697
11130,54.3535,19910,1.80933
11140,54.4023,19921.8,1.81241
11150,54.4512,19934.8,1.81144
11160,54.5,19968.8,1.814517
11170,54.5488,19960.7,1.81572
11180,54.5977,19986.2,1.8167
11190,54.6465,20004.7,1.81906
11200,54.6953,20007.4,1.82059
11210,54.7441,20039.9,1.82284
11220,54.793,20071.4,1.82549
11230,54.8418,20056.9,1.82519
11240,54.8906,20099.6,1.826
11250,54.9395,20113.1,1.82865
11260,54.9883,20131.9,1.8308
11270,55.0371,20150.5,1.83371
11280,55.0859,20174.8,1.83446
11290,55.1348,20172.5,1.83496
11300,55.1836,20212.1,1.83737
11310,55.2324,20217.1,1.83933
11320,55.28125,20236.2,1.84124
11330,55.3301,20250.2,1.84219
11340,55.3789,20272.9,1.84398
11350,55.4277,20256.3,1.84615
11360,55.4766,20315.3,1.84857
11370,55.5254,20319.1,1.84995
11380,55.5742,20312,1.84933
11390,55.623,20351,1.85213
11400,55.6719,20382.5,1.85418
11410,55.7207,20374.6,1.85534
11420,55.7695,20411.3,1.85835
11430,55.8184,20414.9,1.85902
11440,55.8672,20416.9,1.85872
11450,55.916,20449.4,1.8633
11460,55.9648,20470.5,1.86248
11470,56.0137,20481.3,1.86549
11480,56.0625,20513.7,1.86625
11490,56.1113,20529.7,1.86968
11500,56.1602,20511.9,1.86907
11510,56.209,20570.1,1.87246
11520,56.2578,20582.5,1.87261
11530,56.3066,20602.9,1.87528
11540,56.3555,20627.5,1.87702
11550,56.4043,20628.9,1.87798
11560,56.4531,20637.2,1.87814
11570,56.502,20660.7,1.88017
11580,56.5508,20666,1.8823
11590,56.5996,20699.7,1.88392
11600,56.6484,20706.1,1.88523
11610,56.6973,20728.9,1.88717
11620,56.7461,20752.7,1.88845
11630,56.7949,20786.7,1.892193
11640,56.84375,20740.8,1.89178
11650,56.8926,20819.7,1.89401
11660,56.9414,20812.7,1.8946
11670,56.9902,20827.8,1.89738
11680,57.0391,20864.1,1.8992
11690,57.0879,20875.7,1.90122
11700,57.1367,20872.2,1.90186
11710,57.1855,20915.2,1.90412
11720,57.2344,20914.6,1.90505
11730,57.2832,20932.5,1.90631
11740,57.332,20956.2,1.90943
11750,57.3809,20982.3,1.91118
11760,57.4297,20996.1,1.91121
11770,57.4785,21019.1,1.91539
11780,57.5273,21022,1.91508
11790,57.5762,21047.8,1.91648
11800,57.625,21066.9,1.91902
11810,57.6738,21089.8,1.919776
11820,57.7227,21087.9,1.92065
11830,57.7715,21129.7,1.92495
11840,57.8203,21123.9,1.92524
11850,57.8691,21163.4,1.92675
11860,57.918,21172.3,1.92885
11870,57.9668,21181.3,1.92818
11880,58.0156,21211.8,1.93238
11890,58.0645,21230.9,1.93462
11900,58.1133,21240.4,1.93489
11910,58.1621,21261.1,1.93582
11920,58.2109,21277.4,1.93872
11930,58.2598,21290.4,1.94047
11940,58.3086,21319.5,1.94211
11950,58.3574,21320.7,1.94271
11960,58.40625,21336.4,1.94428
11970,58.4551,21368.4,1.94657
11980,58.5039,21374,1.94827
11990,58.5527,21377.6,1.94896
12000,58.6016,21413.7,1.950826
12010,58.6504,21430.4,1.95174
12020,58.6992,21443.9,1.95394
12030,58.748,21469.6,1.95596
12040,58.7969,21476.3,1.958854
12050,58.8457,21467.4,1.95796
12060,58.8945,21520.2,1.96087
12070,58.9434,21505.4,1.96264
12080,58.9922,21561.6,1.96529
12090,59.041,21566.1,1.96601
12100,59.0898,21587.5,1.96764
12110,59.1387,21607,1.96901
12120,59.1875,21637.1,1.97198
12130,59.2363,21644.6,1.97228
12140,59.2852,21661.6,1.97444
12150,59.334,21682.1,1.97473
12160,59.3828,21681.1,1.97788
12170,59.4316,21706.2,1.97807
12180,59.4805,21732,1.980823
12190,59.5293,21718.6,1.98217
12200,59.5781,21769,1.98353
12210,59.627,21784.2,1.98524
12220,59.6758,21777.1,1.98544
12230,59.7246,21803.1,1.98875
12240,59.7734,21835.2,1.990309
12250,59.8223,21844.4,1.99049
12260,59.8711,21863.8,1.994277
12270,59.9199,21887.1,1.996623
12280,59.96875,21874.3,1.99729
12290,60.0176,21905.1,1.99833
12300,60.0664,21937.3,2.00035
12310,60.1152,21935.6,2.00163
12320,60.1641,21981.4,2.00316
12330,60.2129,21987.4,2.00497
12340,60.2617,21997.6,2.006
12350,60.3105,22034.1,2.00968
12360,60.3594,22021.9,2.00961
12370,60.4082,22053.6,2.01034
12380,60.457,22071.1,2.01344
12390,60.5059,22082,2.01463
12400,60.5547,22109,2.01635
12410,60.6035,22128.2,2.01938
12420,60.6523,22103.1,2.02029
12430,60.7012,22146.1,2.02185
12440,60.75,22153.6,2.02317
12450,60.7988,22199.9,2.02583
12460,60.8477,22186.5,2.025995
12470,60.8965,22236.9,2.02765
12480,60.9453,22224.6,2.02776
12490,60.9941,22263,2.032
12500,61.043,22270.4,2.0332
12510,61.0918,22290,2.03383
12520,61.1406,22316.5,2.03523
12530,61.1895,22331.4,2.03696
12540,61.2383,22320.6,2.03832
12550,61.2871,22369.4,2.04143
12560,61.3359,22367.7,2.04322
12570,61.3848,22395.3,2.04303
12580,61.4336,22408.7,2.04582
12590,61.4824,22431.1,2.047
12600,61.53125,22432,2.048
12610,61.5801,22481.8,2.05191
12620,61.6289,22452.4,2.05293
12630,61.6777,22495.7,2.05331
12640,61.7266,22512.5,2.05557
12650,61.7754,22534.9,2.05668
12660,61.8242,22539.4,2.05783
12670,61.873,22575.2,2.06029
12680,61.9219,22560.2,2.06191
12690,61.9707,22593.3,2.063587
12700,62.0195,22622.7,2.06536
12710,62.0684,22634.1,2.065393
12720,62.1172,22648.1,2.06853
12730,62.166,22661.5,2.07035
12740,62.2148,22680.4,2.07238
12750,62.2637,22704.7,2.0734
12760,62.3125,22724.3,2.07607
12770,62.3613,22718.9,2.07622
12780,62.4102,22757.7,2.07822
12790,62.459,22778.8,2.08045
12800,62.5078,22775.4,2.08157
12810,62.5566,22805.8,2.08324
12820,62.6055,22830.6,2.08559
12830,62.6543,22807.9,2.08528
12840,62.7031,22864.9,2.088392
12850,62.752,22876.1,2.09003
12860,62.8008,22892.5,2.09272
12870,62.8496,22908.9,2.09308
12880,62.8984,22920.6,2.09584
12890,62.9473,22926.5,2.09538
12900,62.9961,22953.9,2.09788
12910,63.0449,22968.6,2.09943
12920,63.09375,22991.9,2.10198
12930,63.1426,23008.7,2.10356
12940,63.1914,23034,2.10514
12950,63.2402,23028,2.10498
12960,63.2891,23074.4,2.10909
12970,63.3379,23072.2,2.10778
12980,63.3867,23109.4,2.11155
12990,63.4355,23108.6,2.11367
13000,63.4844,23119.5,2.11625
13010,63.5332,23122.1,2.11543
13020,63.582,23182,2.11894
13030,63.6309,23167,2.11977
13040,63.6797,23209.8,2.1227
13050,63.7285,23227.5,2.12409
13060,63.7773,23242.7,2.12571
13070,63.8262,23255.8,2.12716
13080,63.875,23281.9,2.12856
13090,63.9238,23267,2.12946
13100,63.9727,23312.3,2.13162
13110,64.0215,23329.2,2.13268
13120,64.0703,23324.5,2.13339
13130,64.1191,23353.6,2.13666
13140,64.168,23386.4,2.13832
13150,64.2168,23379.2,2.13972
13160,64.2656,23408.3,2.142293
13170,64.3145,23429.9,2.14353
13180,64.3633,23414.5,2.143018
13190,64.4121,23464,2.14626
13200,64.4609,23466.9,2.14711
13210,64.5098,23470.5,2.14846
13220,64.5586,23517.8,2.15058
13230,64.6074,23521.3,2.15378
13240,64.65625,23528.1,2.15076
13250,64.7051,23548,2.15693
13260,64.7539,23558.3,2.1569
13270,64.8027,23595.6,2.15963
13280,64.8516,23609.2,2.1607
13290,64.9004,23625.3,2.1623
13300,64.9492,23595.3,2.16198
13310,64.998,23662.4,2.16588
13320,65.0469,23639.3,2.16435
13330,65.0957,23701.9,2.16904
13340,65.1445,23693,2.170305
13350,65.1934,23704.7,2.16998
13360,65.2422,23738.4,2.17257
13370,65.291,23761.1,2.17522
13380,65.3398,23736.7,2.17429
13390,65.3887,23790.3,2.17764
13400,65.4375,23784.3,2.17909
13410,65.4863,23820.2,2.18075
13420,65.5352,23838.1,2.18232
13430,65.584,23860.2,2.18477
13440,65.6328,23844.7,2.1845
13450,65.6816,23892,2.18749
13460,65.7305,23877.9,2.18837
13470,65.7793,23917.5,2.18979
13480,65.8281,23925.9,2.19119
13490,65.877,23953.9,2.19434
13500,65.9258,23954.5,2.19475
13510,65.9746,23999.7,2.19777
13520,66.0234,24009.5,2.19781
13530,66.0723,23999.3,2.19814
13540,66.1211,24018.6,2.2022
13550,66.1699,24064.6,2.20529
13560,66.21875,24054.1,2.20369
13570,66.2676,24101.4,2.20822
13580,66.3164,24097.3,2.20817
13590,66.3652,24124.9,2.209374
13600,66.4141,24148.8,2.21247
13610,66.4629,24136.5,2.21176
13620,66.5117,24173.6,2.2141
13630,66.5605,24196.5,2.21627
13640,66.6094,24169,2.21699
13650,66.6582,24205.3,2.21817
13660,66.707,24249.8,2.22208
13670,66.7559,24246.2,2.22161
13680,66.8047,24280.8,2.22581
13690,66.8535,24291.5,2.22737
13700,66.9023,24299.3,2.22792
13710,66.9512,24314.5,2.22844
13720,67.0,24341.3,2.23126
13730,67.0488,24341.2,2.23199
13740,67.0977,24381.5,2.23391
13750,67.1465,24379.6,2.23514
13760,67.1953,24403.1,2.23745
13770,67.2441,24425.5,2.23913
13780,67.293,24436.1,2.24101
13790,67.3418,24447.3,2.24118
13800,67.3906,24478.1,2.24292
13810,67.4395,24461.7,2.24559
13820,67.4883,24505.3,2.24549
13830,67.5371,24521.2,2.24741
13840,67.5859,24540.4,2.2504
13850,67.6348,24550.8,2.25136
13860,67.6836,24580.5,2.25475
13870,67.7324,24588.9,2.25555
13880,67.78125,24618.6,2.25742
13890,67.8301,24626.9,2.25907
13900,67.8789,24651.5,2.25963
13910,67.9277,24652.3,2.26142
13920,67.9766,24682,2.26526
13930,68.0254,24673.9,2.266
13940,68.0742,24717.4,2.26545
13950,68.123,24723,2.267889
13960,68.1719,24734.3,2.26972
13970,68.2207,24754.7,2.27037
13980,68.2695,24777.1,2.27223
13990,68.3184,24782.7,2.27486
14000,68.3672,24808.2,2.27605
14010,68.416,24827.1,2.27857
14020,68.4648,24834.1,2.27717
14030,68.5137,24863.1,2.28135
14040,68.5625,24869.6,2.28216
14050,68.6113,24881.3,2.28472
14060,68.6602,24911.6,2.28589
14070,68.709,24916.3,2.28738
14080,68.7578,24934.3,2.288847
14090,68.8066,24959.4,2.29198
14100,68.8555,24967,2.29306
14110,68.9043,24985.5,2.29341
14120,68.9531,24997.1,2.29449
14130,69.002,25022.1,2.29719
14140,69.0508,25037.1,2.2982
14150,69.0996,25073.1,2.30125
14160,69.1484,25046.7,2.30259
14170,69.1973,25096.9,2.30273
14180,69.2461,25107,2.30502
14190,69.2949,25123.7,2.30709
14200,69.34375,25136.7,2.30838
14210,69.3926,25171,2.31051
14220,69.4414,25140.9,2.31106
14230,69.4902,25194.7,2.31423
14240,69.5391,25208.6,2.31488
14250,69.5879,25215.1,2.31756
14260,69.6367,25249.3,2.31733
14270,69.6855,25264.9,2.32169
14280,69.7344,25254.7,2.32142
14290,69.7832,25291.9,2.32359
14300,69.832,25304.2,2.3253
14310,69.8809,25308.8,2.32449
14320,69.9297,25347.3,2.32803
14330,69.9785,25368.1,2.32953
14340,70.0273,25345.2,2.33039
14350,70.0762,25411.4,2.33461
14360,70.125,25402.8,2.33509
14370,70.1738,25423.9,2.33668
14380,70.2227,25445.6,2.338037
14390,70.2715,25460.8,2.339673
14400,70.3203,25469.7,2.34072
14410,70.3691,25506.3,2.34271
14420,70.418,25510.8,2.3454
14430,70.4668,25541.2,2.34637
14440,70.5156,25557.4,2.34842
14450,70.5645,25547.1,2.34812
14460,70.6133,25584.8,2.351162
14470,70.6621,25601.1,2.35296
14480,70.7109,25605,2.35514
14490,70.7598,25635.6,2.35627
14500,70.8086,25650.7,2.35836
14510,70.8574,25657.5,2.35781
14520,70.90625,25675.6,2.36099
14530,70.9551,25695.5,2.36279
14540,71.0039,25705.1,2.36347
14550,71.0527,25728.2,2.36562
14560,71.1016,25735.9,2.36744
14570,71.1504,25760.9,2.36853
14580,71.1992,25768.9,2.37089
14590,71.248,25771.8,2.37182
14600,71.2969,25803.3,2.3741
14610,71.3457,25830.7,2.37593
14620,71.3945,25838.3,2.37742
14630,71.4434,25842.1,2.3782
14640,71.4922,25878.8,2.38228
14650,71.541,25863,2.38094
14660,71.5898,25911.4,2.38323
14670,71.6387,25932.7,2.38516
14680,71.6875,25941.9,2.38639
14690,71.7363,25950.3,2.38785
14700,71.7852,25982.1,2.391
14710,71.834,25979.2,2.39223
14720,71.8828,26012.4,2.39412
14730,71.9316,26019.2,2.39512
14740,71.9805,26036,2.39705
14750,72.0293,26053.3,2.39804
14760,72.0781,26071.4,2.40022
14770,72.127,26072.2,2.40125
14780,72.1758,26107.3,2.40306
14790,72.2246,26130.8,2.40661
14800,72.2734,26111.6,2.40558
14810,72.3223,26151.3,2.40907
14820,72.3711,26166.8,2.41074
14830,72.4199,26168.5,2.41113
14840,72.46875,26196.2,2.41287
14845,72.4932,-1161.34,2.56493