File: ASM109_2021_data/MTS/UD/MTS_UD_6.csv
,Time [s],Load [N],Displacement [mm]
0,0.0078125,-241.438,0.000224411
13,0.0712891,-230.086,0.000696033
26,0.134766,-231.968,0.00524729
39,0.198242,-232.174,0.00538677
52,0.261719,-208.482,0.00816777
65,0.325195,-216.855,0.00937298
78,0.388672,-183.498,0.0112653
91,0.452148,-167.632,0.0140011
104,0.515625,-131.58,0.0158899
117,0.579102,-120.223,0.01807
130,0.642578,-96.6157,0.0189999
143,0.706055,-83.9129,0.0240773
156,0.769531,-61.9738,0.0237554
169,0.833008,-29.3552,0.02591908
182,0.896484,-39.2367,0.027886
195,0.959961,12.2278,0.0310667
208,1.02344,28.5148,0.0324056
221,1.08691,47.1478,0.0345097
234,1.15039,77.1194,0.0387771
247,1.21387,79.676,0.0381638
260,1.27734,125.947,0.0426954
273,1.34082,121.844,0.0420798
286,1.4043,157.045,0.0453003
299,1.46777,171.164,0.0479427
312,1.53125,209.28,0.0512011
325,1.59473,192.98,0.0522812
338,1.6582,252.137,0.0541623
351,1.72168,260.065,0.05730316
364,1.78516,275.925,0.0576192
377,1.84863,311.311,0.0602697
390,1.91211,287.633,0.0614887
403,1.97559,350.888,0.0652917
416,2.03906,340.685,0.0665313
429,2.10254,372.279,0.06835252
442,2.16602,403.575,0.0706959
455,2.22949,431.857,0.0745645
468,2.29297,427.92,0.0755189
481,2.35645,477.043,0.0773357
494,2.41992,482.658,0.0788243
507,2.4834,486.612,0.0815378
520,2.546875,538.95,0.0839594
533,2.61035,541.84,0.0836362
546,2.67383,584.184,0.0881186
559,2.7373,592.796,0.0897494
572,2.80078,617.123,0.0903672
585,2.86426,648.215,0.0951451
598,2.92773,658.903,0.0946002
611,2.99121,682.672,0.098961
624,3.05469,712.488,0.100138
637,3.11816,722.352,0.101949
650,3.18164,718.349,0.104124
663,3.24512,767.539,0.107542
676,3.30859,782.185,0.107703
689,3.37207,814.832,0.111313
702,3.43555,833.147,0.113616
715,3.49902,837.074,0.1160565
728,3.5625,874.333,0.117039
741,3.62598,900.005,0.119867
754,3.68945,917.119,0.122168
767,3.75293,930.39,0.124158
780,3.81641,967.573,0.125868
793,3.87988,970.761,0.128687
806,3.94336,998.432,0.13052
819,4.00684,996.05,0.130924
832,4.07031,1040.16,0.135297
845,4.13379,1048.61,0.136434
858,4.19727,1077.65,0.1389496
871,4.26074,1097.56,0.140612
884,4.32422,1109.07,0.141163
897,4.3877,1148.15,0.146189
910,4.45117,1160.5,0.145496
923,4.51465,1191.92,0.148803
936,4.578125,1202.22,0.1511693
949,4.6416,1231.09,0.153676
962,4.70508,1225.02,0.155291
975,4.76855,1265.66,0.158667
988,4.83203,1293.85,0.159549
1001,4.89551,1290.63,0.160559
1014,4.95898,1342.99,0.165435
1027,5.02246,1331.29,0.16573
1040,5.08594,1381.89,0.168528
1053,5.14941,1389.11,0.168772
1066,5.21289,1415.31,0.170776
1079,5.27637,1428.4,0.174496
1092,5.33984,1466.27,0.177337
1105,5.40332,1461.51,0.17662
1118,5.4668,1500.69,0.179345
1131,5.53027,1517.45,0.183214
1144,5.59375,1524.09,0.183595
1157,5.65723,1575.22,0.187758
1170,5.7207,1535.62,0.188029
1183,5.78418,1587,0.192211
1196,5.84766,1617.82,0.193387
1209,5.91113,1633.07,0.19408
1222,5.97461,1669.39,0.197675
1235,6.03809,1693.15,0.19946
1248,6.10156,1696.48,0.202229
1261,6.16504,1729.83,0.204131
1274,6.22852,1765.02,0.207827
1287,6.29199,1757.69,0.2066651
1300,6.35547,1800.75,0.210618
1313,6.41895,1789.9,0.2116321
1326,6.48242,1838.3,0.216637
1339,6.5459,1851.41,0.217549
1352,6.609375,1883.99,0.2175647
1365,6.67285,1904.13,0.221153
1378,6.73633,1925.01,0.223555
1391,6.7998,1936.15,0.225287
1404,6.86328,1956.5,0.225513
1417,6.92676,1992.04,0.231199
1430,6.99023,1981.72,0.231012
1443,7.05371,2031.35,0.2343379
1456,7.11719,2020.21,0.234558
1469,7.18066,2068.86,0.237908
1482,7.24414,2076.84,0.240861
1495,7.30762,2092.18,0.240792
1508,7.37109,2127.21,0.245043
1521,7.43457,2140.31,0.244485
1534,7.49805,2173.61,0.248172
1547,7.56152,2193.3,0.250605
1560,7.625,2218.83,0.250989
1573,7.68848,2207.73,0.255002
1586,7.75195,2261,0.256765
1599,7.81543,2250.28,0.25943
1612,7.87891,2306.13,0.261751
1625,7.94238,2329.84,0.264845
1638,8.00586,2309.96,0.2651538
1651,8.06934,2367.21,0.268136
1664,8.13281,2373.44,0.269814
1677,8.19629,2405.45,0.271352
1690,8.25977,2426.91,0.275302
1703,8.32324,2450.27,0.276851
1716,8.38672,2456.68,0.2778545
1729,8.4502,2482.59,0.27936
1742,8.51367,2497.84,0.282104
1755,8.57715,2522.17,0.284399
1768,8.640625,2550.86,0.286387
1781,8.7041,2553.23,0.286732
1794,8.76758,2584.93,0.291636
1807,8.83105,2575.16,0.291097
1820,8.89453,2622.94,0.295239
1833,8.95801,2643.14,0.29681
1846,9.02148,2667.27,0.29994
1859,9.08496,2688.63,0.302009
1872,9.14844,2696.9,0.301397
1885,9.21191,2733.85,0.305019
1898,9.27539,2742.83,0.307256
1911,9.33887,2780.97,0.311193
1924,9.40234,2774.59,0.311387
1937,9.46582,2820.73,0.315715
1950,9.5293,2829.5,0.315178
1963,9.59277,2848.15,0.318389
1976,9.65625,2872.67,0.319545
1989,9.71973,2905.46,0.322102
2002,9.7832,2923.77,0.325468
2015,9.84668,2925.48,0.325101
2028,9.91016,2966.26,0.328576
2041,9.97363,2980.28,0.3306739
2054,10.0371,3009.79,0.334317
2067,10.1006,3000.23,0.335725
2080,10.1641,3051.87,0.338811
2093,10.2275,3059.06,0.338471
2106,10.291,3075.88,0.339885
2119,10.3545,3113.23,0.346043
2132,10.418,3117.56,0.344092
2145,10.4814,3154.1,0.348251
2158,10.5449,3166.47,0.349191
2171,10.6084,3188.52,0.352676
2184,10.6719,3199,0.352787
2197,10.7354,3231.67,0.356676
2210,10.7988,3224.01,0.357766
2223,10.8623,3277.1,0.360032
2236,10.9258,3281.67,0.362058
2249,10.9893,3310.14,0.363113
2262,11.0527,3350.46,0.367808
2275,11.1162,3311.24,0.367171
2288,11.1797,3385.67,0.370515
2301,11.2432,3401.24,0.373053
2314,11.3066,3417.23,0.374629
2327,11.3701,3432.63,0.377571
2340,11.4336,3476.67,0.379747
2353,11.4971,3476.68,0.380723
2366,11.5605,3514.3,0.383656
2379,11.624,3525.06,0.384754
2392,11.6875,3513.52,0.38704
2405,11.751,3565.77,0.390138
2418,11.8145,3577.22,0.391133
2431,11.8779,3613.6,0.395115
2444,11.9414,3623.12,0.39446
2457,12.0049,3642.09,0.396236
2470,12.0684,3666.02,0.401055
2483,12.1318,3698.93,0.403411
2496,12.1953,3699.68,0.403643
2509,12.2588,3737.36,0.406612
2522,12.3223,3758.51,0.40872
2535,12.3857,3757.65,0.410612
2548,12.4492,3801.91,0.415538
2561,12.5127,3801.5,0.413837
2574,12.5762,3838.27,0.4193075
2587,12.6396,3845.58,0.419637
2600,12.7031,3885.77,0.421164
2613,12.7666,3908.69,0.42401
2626,12.8301,3896.84,0.42383
2639,12.8936,3932.74,0.429045
2652,12.957,3965.15,0.429224
2665,13.0205,3989.93,0.4321374
2678,13.084,3967.52,0.433085
2691,13.1475,4025.77,0.437023
2704,13.2109,4032.21,0.438507
2717,13.2744,4068.56,0.440629
2730,13.3379,4095.96,0.443547
2743,13.4014,4101.09,0.444358
2756,13.4648,4124.38,0.448004
2769,13.52832,4118.13,0.447723
2782,13.5918,4169.28,0.451674
2795,13.6553,4187.24,0.453621
2808,13.71875,4213.11,0.456005
2821,13.7822,4228.5,0.456436
2834,13.8457,4253.87,0.459775
2847,13.90918,4240.64,0.462371
2860,13.9727,4296.15,0.463486
2873,14.0361,4319.25,0.46555
2886,14.0996,4323.52,0.4680647
2899,14.1631,4361.61,0.471766
2912,14.2266,4374.1,0.47128
2925,14.29,4407.26,0.475721
2938,14.3535,4409.6,0.476345
2951,14.417,4431.61,0.477931
2964,14.4805,4462.62,0.481001
2977,14.5439,4488.2,0.482807
2990,14.6074,4494.41,0.485099
3003,14.6709,4524.71,0.487981
3016,14.7344,4550.12,0.488926
3029,14.7979,4547.02,0.491486
3042,14.8613,4590.98,0.495202
3055,14.9248,4592.7,0.494636
3068,14.9883,4635.4,0.497735
3081,15.0518,4647.08,0.499864
3094,15.1152,4675.96,0.501639
3107,15.1787,4694.67,0.504988
3120,15.2422,4707.58,0.504562
3133,15.3057,4726.75,0.507429
3146,15.3691,4739.51,0.510425
3159,15.4326,4782.94,0.513396
3172,15.4961,4769.71,0.514336
3185,15.55957,4823.8,0.51689
3198,15.623,4838.16,0.5196588
3211,15.6865,4856.99,0.521037
3224,15.75,4855.93,0.524937
3237,15.8135,4905.91,0.5261184
3250,15.877,4918.18,0.528051
3263,15.94043,4947.21,0.5295
3276,16.0039,4965.69,0.53151
3289,16.0674,4986.07,0.533555
3302,16.1309,5010.62,0.536512
3315,16.1943,4986.6,0.537775
3328,16.2578,5048.8,0.5394839
3341,16.3213,5030.47,0.542187
3354,16.3848,5082.22,0.545942
3367,16.4482,5111.04,0.547784
3380,16.5117,5119.86,0.5481143
3393,16.5752,5154.08,0.55089
3406,16.6387,5138.61,0.551946
3419,16.7021,5187.52,0.55461
3432,16.7656,5205.75,0.557666
3445,16.8291,5243.2,0.559439
3458,16.8926,5212.85,0.561801
3471,16.9561,5273.08,0.565146
3484,17.0195,5291.02,0.564607
3497,17.083,5314.81,0.56815
3510,17.1465,5341.55,0.570562
3523,17.21,5318.5,0.570732
3536,17.2734,5391.75,0.574278
3549,17.3369,5371.37,0.575032
3562,17.4004,5423.38,0.579117
3575,17.4639,5434.72,0.58006
3588,17.5273,5459.69,0.583249
3601,17.59082,5462.42,0.585244
3614,17.6543,5507.11,0.5880301
3627,17.7178,5519.79,0.59011
3640,17.78125,5541.84,0.592423
3653,17.8447,5573.27,0.594017
3666,17.9082,5565.24,0.594872
3679,17.97168,5610.83,0.597673
3692,18.0352,5629.8,0.599928
3705,18.0986,5641.3,0.600802
3718,18.1621,5673.84,0.604445
3731,18.2256,5692.21,0.606624
3744,18.2891,5697.66,0.608671
3757,18.3525,5727.3,0.610291
3770,18.416,5746.69,0.612801
3783,18.4795,5748.01,0.614126
3796,18.543,5805.24,0.617779
3809,18.6064,5786.29,0.617209
3822,18.6699,5836.85,0.621543
3835,18.7334,5852.75,0.623709
3848,18.7969,5873.81,0.624675
3861,18.8604,5896.75,0.626691
3874,18.9238,5925.78,0.629552
3887,18.9873,5945.26,0.631401
3900,19.0508,5948.36,0.632066
3913,19.1143,5979,0.634946
3926,19.1777,5990.57,0.637399
3939,19.2412,6030.88,0.6415062
3952,19.3047,6015.45,0.640659
3965,19.3682,6069.39,0.643227
3978,19.4316,6078.92,0.644884
3991,19.4951,6080.81,0.648084
4004,19.5586,6133.92,0.652069
4017,19.62207,6107.57,0.651834
4030,19.6855,6165.65,0.65623
4043,19.749,6172.86,0.657023
4056,19.8125,6210.28,0.658008
4069,19.876,6222.06,0.660772
4082,19.9395,6252.36,0.664296
4095,20.00293,6259.29,0.665266
4108,20.0664,6288.25,0.667976
4121,20.1299,6314.12,0.671078
4134,20.1934,6316.38,0.671744
4147,20.2568,6362.5,0.675311
4160,20.3203,6327.21,0.674818
4173,20.3838,6398.3,0.67724
4186,20.4473,6403.61,0.680125
4199,20.5107,6431.99,0.682208
4212,20.5742,6449.87,0.685009
4225,20.6377,6478.08,0.684348
4238,20.7012,6469.44,0.688992
4251,20.7646,6512.64,0.690031
4264,20.8281,6546.05,0.694083
4277,20.8916,6539.42,0.693015
4290,20.9551,6584.04,0.696944
4303,21.0186,6550.47,0.69901
4316,21.082,6615.47,0.702749
4329,21.1455,6642.1,0.703514
4342,21.209,6655.93,0.70578
4355,21.2725,6672.14,0.708832
4368,21.3359,6706.88,0.709652
4381,21.3994,6716.47,0.712347
4394,21.4629,6732.9,0.713353
4407,21.5264,6775.27,0.717207
4420,21.5898,6761.45,0.71807
4433,21.65332,6812.38,0.720894
4446,21.7168,6807.05,0.720645
4459,21.7803,6837.73,0.724422
4472,21.84375,6875.78,0.727875
4485,21.9072,6865.89,0.72731
4498,21.9707,6913.66,0.731069
4511,22.03418,6910.16,0.731757
4524,22.0977,6955.32,0.734599
4537,22.1611,6959.2,0.73481
4550,22.2246,6996.65,0.738402
4563,22.2881,7004.58,0.7403152
4576,22.3516,7037.73,0.744065
4589,22.415,7027.9,0.745227
4602,22.4785,7068.68,0.747028
4615,22.542,7084.9,0.74817
4628,22.6055,7105.11,0.751112
4641,22.6689,7138.78,0.755151
4654,22.7324,7132.67,0.755013
4667,22.7959,7169.97,0.7587142
4680,22.8594,7184.55,0.759222
4693,22.9229,7222.69,0.762745
4706,22.9863,7219.54,0.764907
4719,23.0498,7263.35,0.768679
4732,23.1133,7264.8,0.769438
4745,23.1768,7301.65,0.769741
4758,23.2402,7324.78,0.774493
4771,23.3037,7331.06,0.775043
4784,23.3672,7379.32,0.7794137
4797,23.4307,7348.83,0.7788
4810,23.4941,7402.56,0.781475
4823,23.5576,7420.07,0.784879
4836,23.6211,7442.91,0.786212
4849,23.68457,7457.85,0.786425
4862,23.748,7490.04,0.789683
4875,23.8115,7511.06,0.791884
4888,23.875,7535.13,0.795137
4901,23.9385,7558.01,0.796828
4914,24.002,7552.88,0.798221
4927,24.06543,7589.88,0.798729
4940,24.1289,7603.05,0.8027159
4953,24.1924,7625.07,0.803562
4966,24.2559,7640.08,0.808285
4979,24.3193,7669.17,0.808814
4992,24.3828,7689.86,0.812352
5005,24.4463,7700.23,0.811414
5018,24.5098,7734.83,0.816738
5031,24.5732,7747.17,0.817647
5044,24.6367,7787.52,0.821859
5057,24.7002,7782.42,0.821526
5070,24.7637,7826.85,0.825043
5083,24.8271,7836.12,0.826041
5096,24.8906,7857.87,0.8285464
5109,24.9541,7882.95,0.830189
5122,25.0176,7881.74,0.830768
5135,25.0811,7913.17,0.837482
5148,25.1445,7924.77,0.834416
5161,25.208,7968.42,0.838736
5174,25.2715,7971.16,0.840994
5187,25.335,8006,0.845285
5200,25.3984,8007.15,0.844346
5213,25.4619,8047.18,0.847135
5226,25.5254,8068.88,0.849463
5239,25.5889,8076.65,0.852273
5252,25.6523,8109.88,0.854474
5265,25.71582,8123.99,0.854341
5278,25.7793,8152.37,0.859167
5291,25.8428,8156.95,0.859156
5304,25.90625,8186.96,0.862128
5317,25.9697,8195.32,0.863348
5330,26.0332,8229.56,0.866517
5343,26.09668,8236.15,0.86759
5356,26.1602,8272.52,0.871973
5369,26.2236,8291.7,0.872453
5382,26.2871,8297.11,0.875034
5395,26.3506,8332.74,0.876461
5408,26.4141,8310.92,0.877657
5421,26.4775,8375.96,0.879978
5434,26.541,8368.13,0.882518
5447,26.6045,8407.64,0.884991
5460,26.668,8417.48,0.887669
5473,26.7314,8454.38,0.888361
5486,26.7949,8465.41,0.890988
5499,26.8584,8487.86,0.894336
5512,26.9219,8508.89,0.896609
5525,26.9854,8533.36,0.89618
5538,27.0488,8558.92,0.901159
5551,27.1123,8539.81,0.902317
5564,27.1758,8606.64,0.903642
5577,27.2393,8595.23,0.905832
5590,27.3027,8626.54,0.907915
5603,27.3662,8650.23,0.911112
5616,27.4297,8686.04,0.913674
5629,27.4932,8693.74,0.914066
5642,27.5566,8722.64,0.917283
5655,27.6201,8754.08,0.920801
5668,27.6836,8728.73,0.919535
5681,27.74707,8792.07,0.923552
5694,27.8105,8770.84,0.924662
5707,27.874,8824.06,0.928335
5720,27.9375,8839.68,0.929446
5733,28.001,8865.25,0.930539
5746,28.0645,8882.7,0.934972
5759,28.12793,8900.69,0.933835
5772,28.1914,8923.61,0.939214
5785,28.2549,8937.7,0.938949
5798,28.3184,8971.38,0.942583
5811,28.3818,8970.32,0.942994
5824,28.4453,9014.4,0.946207
5837,28.5088,9000.97,0.948328
5850,28.5723,9056.92,0.951665
5863,28.6357,9079.54,0.952749
5876,28.6992,9079.77,0.952811
5889,28.7627,9113.55,0.956705
5902,28.8262,9136.67,0.960103
5915,28.8896,9153.71,0.961084
5928,28.9531,9166.46,0.962677
5941,29.0166,9194.12,0.9641571
5954,29.0801,9214.05,0.965965
5967,29.1436,9238.18,0.970339
5980,29.207,9250.41,0.970657
5993,29.2705,9288.84,0.973901
6006,29.334,9298.48,0.976613
6019,29.3975,9305.29,0.977791
6032,29.4609,9350.32,0.981387
6045,29.5244,9331.15,0.9808476
6058,29.5879,9390.52,0.985806
6071,29.6514,9395.5,0.985493
6084,29.7148,9422.64,0.988071
6097,29.77832,9427.05,0.991115
6110,29.8418,9467.14,0.993115
6123,29.9053,9471.37,0.995437
6136,29.96875,9514.32,0.997436
6149,30.0322,9534.59,0.998996
6162,30.0957,9530.43,1.00038
6175,30.15918,9575.77,1.00392
6188,30.2227,9576.77,1.00393
6201,30.2861,9615.38,1.008166
6214,30.3496,9614.33,1.00991
6227,30.4131,9641.22,1.0115
6240,30.4766,9666.59,1.01619
6253,30.54,9685.46,1.01567
6266,30.6035,9688.48,1.01914
6279,30.667,9730.78,1.0213
6292,30.7305,9756.28,1.02273
6305,30.7939,9745.33,1.02348
6318,30.8574,9804.73,1.02785
6331,30.9209,9787.46,1.02812
6344,30.9844,9835,1.03203
6357,31.0479,9858.74,1.03393
6370,31.1113,9868.01,1.03434
6383,31.1748,9897.72,1.03792
6396,31.2383,9899.19,1.03762
6409,31.3018,9927.38,1.04118
6422,31.3652,9951.19,1.04358
6435,31.4287,9969.64,1.0464
6448,31.4922,9983.14,1.04743
6461,31.5557,10017.7,1.04994
6474,31.6191,10025.2,1.05169
6487,31.6826,10049.9,1.0538
6500,31.7461,10076.1,1.05748
6513,31.80957,10081,1.05565
6526,31.873,10111,1.06155
6539,31.9365,10124.2,1.06219
6552,32.0,10149.9,1.06426
6565,32.0635,10176.1,1.0658
6578,32.127,10202.3,1.06994
6591,32.19043,10192.4,1.07026
6604,32.2539,10247.5,1.07433
6617,32.3174,10261.5,1.07503
6630,32.3809,10275.2,1.07655
6643,32.4443,10302.5,1.0806
6656,32.5078,10290.6,1.08022
6669,32.5713,10342.5,1.08491
6682,32.6348,10353.3,1.0844
6695,32.6982,10364,1.08856
6708,32.7617,10397,1.08849
6721,32.8252,10429,1.09177
6734,32.8887,10421.7,1.09447
6747,32.9521,10459,1.09629
6760,33.0156,10477.3,1.09793
6773,33.0791,10496.7,1.09941
6786,33.1426,10532.4,1.10396
6799,33.2061,10512,1.10423
6812,33.2695,10571.6,1.1078
6825,33.333,10579.4,1.10686
6838,33.3965,10603.2,1.11051
6851,33.46,10616.4,1.1134
6864,33.5234,10629.6,1.11492
6877,33.5869,10668.1,1.116436
6890,33.6504,10695,1.12025
6903,33.7139,10709.8,1.12362
6916,33.7773,10725.6,1.12389
6929,33.84082,10750.7,1.12621
6942,33.9043,10745.3,1.12759
6955,33.9678,10788.5,1.1301
6968,34.03125,10798,1.13135
6981,34.0947,10820.5,1.1347
6994,34.1582,10845.1,1.13672
7007,34.22168,10853.6,1.13926
7020,34.2852,10891,1.1404
7033,34.3486,10914.2,1.14467
7046,34.4121,10935.7,1.14555
7059,34.4756,10930.4,1.14758
7072,34.5391,10979.4,1.14987
7085,34.6025,10952.5,1.15115
7098,34.666,11024.2,1.15474
7111,34.7295,11034,1.15529
7124,34.793,11050.9,1.15827
7137,34.8564,11075,1.16094
7150,34.9199,11056.5,1.160308
7163,34.9834,11117.2,1.16462
7176,35.0469,11120.4,1.16505
7189,35.1104,11156.7,1.16761
7202,35.1738,11163.4,1.16964
7215,35.2373,11191.3,1.17249
7228,35.3008,11199.5,1.1739
7241,35.3643,11244.7,1.17655
7254,35.4277,11263.5,1.17955
7267,35.4912,11271.7,1.17906
7280,35.5547,11306.8,1.18316
7293,35.6182,11301.7,1.18373
7306,35.6816,11340.9,1.18755
7319,35.7451,11350.8,1.18905
7332,35.8086,11375,1.19184
7345,35.87207,11388.3,1.19285
7358,35.9355,11424.7,1.19514
7371,35.999,11416.7,1.19827
7384,36.0625,11461.7,1.19945
7397,36.126,11492.2,1.20209
7410,36.1895,11487,1.20303
7423,36.25293,11539.1,1.20737
7436,36.3164,11517.8,1.20769
7449,36.3799,11563.2,1.20936
7462,36.4434,11583.8,1.21287
7475,36.5068,11595,1.21408
7488,36.5703,11624.5,1.21714
7501,36.6338,11658.6,1.21922
7514,36.6973,11662.3,1.22116
7527,36.7607,11686.6,1.22246
7540,36.8242,11717.9,1.22656
7553,36.8877,11714,1.226048
7566,36.9512,11762.8,1.2299
7579,37.0146,11741.5,1.23142
7592,37.0781,11788.2,1.23526
7605,37.1416,11804.5,1.237021
7618,37.2051,11816.7,1.23738
7631,37.2686,11854.8,1.24102
7644,37.332,11844.7,1.24132
7657,37.3955,11881.9,1.24465
7670,37.459,11910.2,1.24641
7683,37.5225,11931.6,1.24993
7696,37.5859,11948.3,1.25127
7709,37.6494,11982.4,1.25388
7722,37.7129,11976.4,1.254297
7735,37.7764,12020.2,1.25839
7748,37.8398,12039.8,1.260873
7761,37.90332,12027.2,1.26
7774,37.9668,12087.3,1.26565
7787,38.0303,12064,1.26563
7800,38.09375,12106,1.26806
7813,38.1572,12145.3,1.269313
7826,38.2207,12163.7,1.27194
7839,38.28418,12163,1.27422
7852,38.3477,12196.7,1.27744
7865,38.4111,12225.1,1.27784
7878,38.4746,12242,1.27927
7891,38.5381,12264.5,1.28474
7904,38.6016,12244.7,1.28353
7917,38.665,12300.1,1.28629
7930,38.7285,12283.5,1.28896
7943,38.792,12341,1.29131
7956,38.8555,12353.3,1.2932
7969,38.9189,12379.2,1.29525
7982,38.9824,12383.7,1.297561
7995,39.0459,12425,1.29939
8008,39.1094,12446.9,1.30298
8021,39.1729,12451,1.30252
8034,39.2363,12487.3,1.30729
8047,39.2998,12485.2,1.3071
8060,39.3633,12530.4,1.3101
8073,39.4268,12531.4,1.31143
8086,39.4902,12559.1,1.31395
8099,39.5537,12576.6,1.31682
8112,39.6172,12606.6,1.318646
8125,39.6807,12628.2,1.321844
8138,39.7441,12647.3,1.32324
8151,39.8076,12669,1.32459
8164,39.8711,12685.4,1.32581
8177,39.93457,12721.7,1.33039
8190,39.998,12714.9,1.33036
8203,40.0615,12759.7,1.33449
8216,40.125,12755.4,1.335104
8229,40.1885,12790.9,1.33608
8242,40.252,12814.5,1.34018
8255,40.31543,12828.5,1.34207
8268,40.3789,12849.5,1.34435
8281,40.4424,12861.3,1.34397
8294,40.5059,12899,1.34862
8307,40.5693,12907.2,1.35052
8320,40.6328,12938.5,1.35304
8333,40.6963,12927.8,1.3539
8346,40.7598,12974.4,1.35774
8359,40.8232,12982.4,1.35827
8372,40.8867,13002.9,1.36139
8385,40.9502,13038.4,1.36327
8398,41.0137,13028.1,1.36444
8411,41.0771,13075.4,1.367784
8424,41.1406,13085.1,1.36886
8437,41.2041,13120.8,1.37212
8450,41.2676,13124.9,1.37287
8463,41.3311,13156.8,1.37607
8476,41.3945,13176.6,1.3792
8489,41.458,13210.8,1.381601
8502,41.5215,13227.7,1.38395
8515,41.585,13237.6,1.38425
8528,41.6484,13273.8,1.38733
8541,41.7119,13242.2,1.38714
8554,41.7754,13315.8,1.391678
8567,41.8389,13309.9,1.39164
8580,41.9023,13337.3,1.39519
8593,41.96582,13361.6,1.39743
8606,42.0293,13382.6,1.39812
8619,42.0928,13402.1,1.40071
8632,42.15625,13432.8,1.40313
8645,42.2197,13456,1.40587
8658,42.2832,13450.3,1.40835
8671,42.34668,13504.2,1.4119
8684,42.4102,13481.5,1.41035
8697,42.4736,13542.6,1.414188
8710,42.5371,13547.7,1.41582
8723,42.6006,13574.6,1.41804
8736,42.6641,13587.7,1.421337
8749,42.7275,13613.1,1.42213
8762,42.791,13630.2,1.42562
8775,42.8545,13654.8,1.42657
8788,42.918,13681.3,1.42961
8801,42.9814,13682.6,1.4301
8814,43.0449,13724.3,1.43314
8827,43.1084,13713.1,1.43504
8840,43.1719,13758,1.43774
8853,43.2354,13771.3,1.44
8866,43.2988,13793.8,1.44164
8879,43.3623,13817.6,1.44436
8892,43.4258,13824.1,1.44413
8905,43.4893,13859.5,1.44795
8918,43.5527,13872.4,1.4495
8931,43.6162,13907.5,1.45284
8944,43.6797,13910.2,1.45426
8957,43.7432,13947.6,1.45691
8970,43.8066,13943.6,1.4582
8983,43.8701,13978,1.46154
8996,43.9336,13990.8,1.463344
9009,43.99707,14010.7,1.46309
9022,44.0605,14036.7,1.46768
9035,44.124,14011.8,1.468129
9048,44.1875,14080.8,1.47159
9061,44.251,14090.6,1.47094
9074,44.3145,14127.1,1.47517
9087,44.37793,14123.2,1.47598
9100,44.4414,14150.5,1.47808
9113,44.5049,14162.2,1.48155
9126,44.5684,14183.9,1.48303
9139,44.6318,14218.3,1.4861
9152,44.6953,14233.2,1.48728
9165,44.7588,14262.7,1.49194
9178,44.8223,14254.1,1.49166
9191,44.8857,14301,1.4939
9204,44.9492,14325.6,1.496362
9217,45.0127,14340.9,1.49861
9230,45.0762,14356.2,1.501156
9243,45.1396,14384.8,1.50416
9256,45.2031,14376.5,1.50476
9269,45.2666,14426.5,1.50684
9282,45.3301,14450.7,1.50951
9295,45.3936,14413.1,1.51021
9308,45.457,14487.1,1.51387
9321,45.5205,14471.2,1.51298
9334,45.584,14521.5,1.51741
9347,45.6475,14543.8,1.52073
9360,45.7109,14562.2,1.52224
9373,45.7744,14584.3,1.52457
9386,45.8379,14600.3,1.5277
9399,45.9014,14606.8,1.52804
9412,45.9648,14636.7,1.53099
9425,46.02832,14678,1.53212
9438,46.0918,14674.9,1.53331
9451,46.1553,14710.5,1.53648
9464,46.21875,14694,1.53805
9477,46.2822,14757.3,1.54189
9490,46.3457,14762.5,1.54417
9503,46.40918,14779.2,1.54479
9516,46.4727,14817.1,1.54795
9529,46.5361,14839.6,1.548758
9542,46.5996,14846.9,1.55235
9555,46.6631,14856.6,1.55393
9568,46.7266,14899.5,1.555282
9581,46.79,14894.7,1.55805
9594,46.8535,14937.4,1.56074
9607,46.917,14934.5,1.56167
9620,46.9805,14971.5,1.563933
9633,47.0439,15000.6,1.56666
9646,47.1074,14987.4,1.56869
9659,47.1709,15034.9,1.57075
9672,47.2344,15049.4,1.57189
9685,47.2979,15084.3,1.57546
9698,47.3613,15092.5,1.57626
9711,47.4248,15124.2,1.57916
9724,47.4883,15129,1.582476
9737,47.5518,15161.4,1.58397
9750,47.6152,15177.8,1.58363
9763,47.6787,15195.2,1.58757
9776,47.7422,15224.6,1.58964
9789,47.8057,15220.5,1.59097
9802,47.8691,15261.1,1.59355
9815,47.9326,15279.4,1.59611
9828,47.9961,15299.1,1.59837
9841,48.05957,15314.8,1.60047
9854,48.123,15342.3,1.60385
9867,48.1865,15336.5,1.60517
9880,48.25,15388.8,1.60624
9893,48.3135,15409,1.60879
9906,48.377,15420.6,1.61075
9919,48.44043,15457.8,1.61443
9932,48.5039,15422.6,1.61466
9945,48.5674,15492.1,1.61826
9958,48.6309,15499.1,1.61834
9971,48.6943,15512.4,1.62101
9984,48.7578,15555.2,1.62424
9997,48.8213,15575,1.62464
10010,48.8848,15591.7,1.62842
10023,48.9482,15614.2,1.63109
10036,49.0117,15636.9,1.63254
10049,49.0752,15646.1,1.63434
10062,49.1387,15675.7,1.63764
10075,49.2021,15673.1,1.63814
10088,49.2656,15724.7,1.64237
10101,49.3291,15730.7,1.64157
10114,49.3926,15749.4,1.644
10127,49.4561,15779.5,1.6476
10140,49.5195,15787.2,1.64956
10153,49.583,15815.3,1.65192
10166,49.6465,15822.3,1.65402
10179,49.71,15840.9,1.65558
10192,49.7734,15860.3,1.65809
10205,49.8369,15904.5,1.65912
10218,49.9004,15906.9,1.66204
10231,49.9639,15934.3,1.66541
10244,50.0273,15953.1,1.66589
10257,50.09082,15965,1.66666
10270,50.1543,15994,1.67142
10283,50.2178,15989.9,1.67039
10296,50.28125,16034,1.67516
10309,50.3447,16048.6,1.67737
10322,50.4082,16074.7,1.67811
10335,50.47168,16086.8,1.68205
10348,50.5352,16118.5,1.68375
10361,50.5986,16131.2,1.68444
10374,50.6621,16153.8,1.68668
10387,50.7256,16177.8,1.68979
10400,50.7891,16179.4,1.68959
10413,50.8525,16220.7,1.69402
10426,50.916,16216.5,1.69397
10439,50.9795,16242.4,1.697964
10452,51.043,16266.1,1.69963
10465,51.1064,16269.1,1.70062
10478,51.1699,16303.6,1.70486
10491,51.2334,16331.9,1.70651
10504,51.2969,16352.9,1.70861
10517,51.3604,16379.2,1.70979
10530,51.4238,16387.7,1.71329
10543,51.4873,16397.6,1.71472
10556,51.5508,16438,1.71743
10569,51.6143,16439.5,1.71845
10582,51.6777,16466.8,1.72066
10595,51.7412,16486.8,1.72289
10608,51.8047,16509.6,1.72362
10621,51.8682,16532,1.72659
10634,51.9316,16547.6,1.73033
10647,51.9951,16576.9,1.73056
10660,52.0586,16587.6,1.73353
10673,52.12207,16619.3,1.73539
10686,52.1855,16621.3,1.73862
10699,52.249,16650.9,1.74042
10712,52.3125,16656.7,1.74314
10725,52.376,16701.2,1.745296
10738,52.4395,16710.2,1.74772
10751,52.5029,16733.2,1.74872
10764,52.5664,16762.5,1.75232
10777,52.6299,16772.8,1.75227
10790,52.6934,16803.8,1.7558
10803,52.7568,16822.4,1.7577
10816,52.8203,16853.6,1.76023
10829,52.8838,16859.1,1.7616
10842,52.9473,16893.7,1.7653
10855,53.0107,16886.2,1.76507
10868,53.0742,16925.5,1.768464
10881,53.1377,16959.4,1.77046
10894,53.2012,16937.8,1.7718
10907,53.2646,16987.4,1.77608
10920,53.3281,16986.5,1.77468
10933,53.3916,17031.8,1.78013
10946,53.4551,17041.7,1.78125
10959,53.5186,17067.3,1.78332
10972,53.582,17075.5,1.785606
10985,53.6455,17109.8,1.78796
10998,53.709,17122,1.78759
11011,53.7725,17136.4,1.789843
11024,53.8359,17178,1.79512
11037,53.8994,17150.8,1.79432
11050,53.9629,17211.1,1.79702
11063,54.0264,17186.3,1.79768
11076,54.0898,17237.7,1.80192
11089,54.1533,17263.6,1.80318
11102,54.2168,17285.8,1.80477
11115,54.2803,17287.5,1.80896
11128,54.34375,17327.2,1.80975
11141,54.4072,17342.6,1.81169
11154,54.4707,17368.3,1.81429
11167,54.5342,17373.7,1.8163
11180,54.5977,17389.1,1.81703
11193,54.6611,17442.2,1.82186
11206,54.7246,17432,1.82327
11219,54.7881,17467.6,1.82418
11232,54.8516,17483.4,1.82756
11245,54.915,17512.8,1.82849
11258,54.9785,17530.3,1.83155
11271,55.042,17547.3,1.83315
11284,55.1055,17562.2,1.83694
11297,55.1689,17581.8,1.83676
11310,55.2324,17617.4,1.84075
11323,55.2959,17619.4,1.84171
11336,55.3594,17658,1.84355
11349,55.4229,17641.8,1.844628
11362,55.4863,17675.5,1.84733
11375,55.5498,17694.5,1.85029
11388,55.6133,17705.8,1.85113
11401,55.6768,17762,1.85574
11414,55.7402,17745.6,1.8563
11427,55.8037,17781.5,1.859145
11440,55.8672,17811.1,1.8609
11453,55.9307,17839.3,1.86328
11466,55.9941,17806.5,1.863619
11479,56.0576,17872.3,1.86746
11492,56.1211,17893.6,1.8708
11505,56.1846,17903.9,1.87083
11518,56.248,17933.9,1.87454
11531,56.3115,17918.7,1.87514
11544,56.375,17975.6,1.87793
11557,56.4385,17989.7,1.87931
11570,56.502,18009.5,1.88115
11583,56.5654,18026.2,1.88229
11596,56.6289,18052.2,1.88704
11609,56.6924,18050.1,1.88788
11622,56.7559,18087.4,1.89174
11635,56.8193,18114.5,1.89236
11648,56.8828,18129.2,1.89392
11661,56.9463,18155.1,1.896822
11674,57.0098,18149.5,1.89707
11687,57.0732,18189.8,1.90143
11700,57.1367,18208,1.90392
11713,57.2002,18224.6,1.90468
11726,57.2637,18251.8,1.90723
11739,57.3271,18269.6,1.90877
11752,57.3906,18281.5,1.91097
11765,57.4541,18320,1.91349
11778,57.5176,18312.4,1.91442
11791,57.5811,18348.2,1.91669
11804,57.6445,18381.3,1.92093
11817,57.708,18381.8,1.92102
11830,57.7715,18414.3,1.92386
11843,57.835,18429.8,1.92646
11856,57.8984,18452.7,1.92864
11869,57.9619,18474.8,1.93054
11882,58.0254,18483.1,1.93182
11895,58.0889,18502.6,1.9359
11908,58.1523,18525.3,1.93717
11921,58.2158,18556.1,1.93783
11934,58.2793,18563.7,1.94046
11947,58.3428,18592.3,1.94307
11960,58.40625,18565.8,1.94452
11973,58.4697,18631.9,1.94827
11986,58.5332,18655.4,1.9502
11999,58.5967,18664.4,1.95125
12012,58.6602,18700.8,1.95412
12025,58.7236,18713.4,1.95582
12038,58.7871,18734.4,1.95884
12051,58.8506,18756.7,1.96141
12064,58.9141,18779.1,1.96374
12077,58.9775,18795,1.96299
12090,59.041,18819.5,1.9678
12103,59.1045,18818.1,1.96806
12116,59.168,18864.3,1.97036
12129,59.2314,18875.4,1.97289
12142,59.2949,18879.8,1.97475
12155,59.3584,18927.7,1.9783
12168,59.4219,18901.9,1.977409
12181,59.4854,18956.1,1.98105
12194,59.5488,18968.8,1.98306
12207,59.6123,18996.3,1.98654
12220,59.6758,18994.2,1.98684
12233,59.7393,19037.9,1.98962
12246,59.8027,19032.4,1.991639
12259,59.8662,19079.1,1.99555
12272,59.9297,19089.9,1.9957
12285,59.9932,19088.6,1.99709
12298,60.0566,19140.3,2.001538
12311,60.1201,19133.4,2.00143
12324,60.1836,19181.6,2.00551
12337,60.2471,19206,2.00638
12350,60.3105,19209.6,2.00858
12363,60.374,19220.4,2.01137
12376,60.4375,19255,2.01417
12389,60.501,19270.8,2.014622
12402,60.5645,19302.5,2.01781
12415,60.6279,19319,2.01939
12428,60.6914,19322.4,2.02082
12441,60.7549,19365.6,2.0251
12454,60.8184,19371.9,2.02662
12467,60.8818,19392.8,2.0283
12480,60.9453,19402.1,2.03016
12493,61.0088,19408.4,2.03109
12506,61.0723,19449.4,2.03459
12519,61.1357,19458.5,2.03613
12532,61.1992,19497,2.037672
12545,61.2627,19511.1,2.03869
12558,61.3262,19526.8,2.04273
12571,61.3896,19509.5,2.04443
12584,61.4531,19579,2.04773
12597,61.5166,19583.5,2.04839
12610,61.5801,19612.5,2.04948
12623,61.6436,19626.2,2.05311
12636,61.707,19638,2.05361
12649,61.7705,19680,2.0587
12662,61.834,19672.2,2.05758
12675,61.8975,19717.2,2.06235
12688,61.9609,19726.2,2.06299
12701,62.0244,19759.4,2.06648
12714,62.0879,19750.8,2.06832
12727,62.1514,19789,2.06929
12740,62.2148,19798.3,2.07213
12753,62.2783,19831.3,2.07416
12766,62.3418,19858.5,2.07743
12779,62.4053,19865.5,2.07756
12792,62.46875,19891,2.08091
12805,62.5322,19911.2,2.08149
12818,62.5957,19937,2.08525
12831,62.6592,19951.8,2.087832
12844,62.7227,19985,2.08964
12857,62.7861,19988.1,2.091114
12870,62.8496,20014.8,2.09395
12883,62.9131,20036,2.09615
12896,62.9766,20053.9,2.09758
12909,63.04,20072.8,2.1007
12922,63.1035,20062,2.10116
12935,63.167,20120.6,2.10435
12948,63.2305,20111.7,2.10552
12961,63.2939,20159.7,2.10818
12974,63.3574,20172,2.11036
12987,63.4209,20193.9,2.11295
13000,63.4844,20210.8,2.1158
13013,63.5479,20234.8,2.11615
13026,63.6113,20237.5,2.11907
13039,63.6748,20270.5,2.12121
13052,63.7383,20301.1,2.12404
13065,63.8018,20288.8,2.1246
13078,63.8652,20329.1,2.12681
13091,63.9287,20343.4,2.12878
13104,63.9922,20362.9,2.13107
13117,64.0557,20382.9,2.13297
13130,64.1191,20411.7,2.13607
13143,64.1826,20428.8,2.13781
13156,64.2461,20445.9,2.13857
13169,64.30957,20450.8,2.141191
13182,64.373,20481,2.14455
13195,64.4365,20516.4,2.14582
13208,64.5,20508.8,2.14677
13221,64.5635,20560.2,2.151217
13234,64.627,20567.8,2.15172
13247,64.69043,20577,2.15527
13260,64.7539,20613.5,2.15766
13273,64.8174,20616,2.15759
13286,64.8809,20643.9,2.16083
13299,64.9443,20666.8,2.16296
13312,65.0078,20691,2.16472
13325,65.0713,20704.2,2.16517
13338,65.1348,20731.9,2.1698
13351,65.1982,20714.8,2.17112
13364,65.2617,20772.3,2.1747
13377,65.3252,20799.5,2.17595
13390,65.3887,20791.4,2.176774
13403,65.4521,20824,2.18052
13416,65.5156,20828.3,2.181222
13429,65.5791,20869.4,2.18368
13442,65.6426,20892.4,2.18575
13455,65.7061,20912.1,2.18862
13468,65.7695,20923.2,2.18965
13481,65.833,20957.3,2.19261
13494,65.8965,20950.4,2.19662
13507,65.96,20990,2.19717
13520,66.0234,20995.3,2.19754
13533,66.0869,21010.2,2.19951
13546,66.1504,21051.2,2.20431
13559,66.2139,21020.6,2.204205
13572,66.2773,21096.2,2.20817
13585,66.34082,21100.2,2.21007
13598,66.4043,21124,2.21099
13611,66.4678,21135.6,2.21427
13624,66.53125,21173.5,2.21686
13637,66.5947,21178.4,2.21809
13650,66.6582,21202.6,2.22026
13663,66.72168,21232.7,2.22379
13676,66.7852,21231.1,2.22382
13689,66.8486,21274,2.22705
13702,66.9121,21241.1,2.22821
13715,66.9756,21309.1,2.23161
13728,67.0391,21323.1,2.23224
13741,67.1025,21339.9,2.23451
13754,67.166,21360.2,2.23723
13767,67.2295,21392.1,2.23974
13780,67.293,21407.8,2.24334
13793,67.3564,21428.2,2.24477
13806,67.4199,21456.9,2.24578
13819,67.4834,21462.8,2.24718
13832,67.5469,21493.6,2.25163
13845,67.6104,21500.3,2.25102
13858,67.6738,21526.8,2.2541
13871,67.7373,21544.5,2.2571
13884,67.8008,21565.1,2.25889
13897,67.8643,21595.3,2.26113
13910,67.9277,21567.3,2.26222
13923,67.9912,21624.2,2.26421
13936,68.0547,21638.1,2.26669
13949,68.1182,21678.3,2.26954
13962,68.1816,21677.8,2.26965
13975,68.2451,21709.1,2.27415
13988,68.3086,21724,2.27483
14001,68.37207,21749.5,2.27756
14014,68.4355,21774.1,2.28073
14027,68.499,21769.5,2.28106
14040,68.5625,21817.1,2.28531
14053,68.626,21788.9,2.2847
14066,68.6895,21836,2.28871
14079,68.75293,21859.6,2.29045
14092,68.8164,21880.9,2.2918
14105,68.8799,21905.3,2.29394
14118,68.9434,21930.4,2.29679
14131,69.0068,21939.5,2.29929
14144,69.0703,21964.3,2.30191
14157,69.1338,21993.1,2.30321
14170,69.1973,21983.7,2.30365
14183,69.2607,22028.1,2.30877
14196,69.3242,22037.5,2.30797
14209,69.3877,22067.2,2.310914
14222,69.4512,22077.3,2.31317
14235,69.5146,22101.7,2.3156
14248,69.5781,22120.2,2.31717
14261,69.6416,22145.5,2.32013
14274,69.7051,22163.8,2.32223
14287,69.7686,22186.7,2.32541
14300,69.832,22210.9,2.32739
14313,69.8955,22203,2.32634
14326,69.959,22248,2.33064
14339,70.0225,22243.6,2.33247
14352,70.0859,22288.1,2.33562
14365,70.1494,22298.8,2.33701
14378,70.2129,22304.4,2.33715
14391,70.2764,22340.1,2.34129
14404,70.3398,22361.5,2.34381
14417,70.40332,22377.7,2.3454
14430,70.4668,22388.8,2.34623
14443,70.5303,22414,2.34998
14456,70.59375,22427.2,2.35153
14469,70.6572,22463.2,2.35291
14482,70.7207,22453.9,2.35524
14495,70.78418,22498.4,2.35905
14508,70.8477,22525,2.35997
14521,70.9111,22512.3,2.36043
14534,70.9746,22553.1,2.36574
14547,71.0381,22572.9,2.36662
14560,71.1016,22597,2.3686
14573,71.165,22601,2.37247
14586,71.2285,22641.9,2.37232
14599,71.292,22638.4,2.37426
14612,71.3555,22675,2.37696
14625,71.4189,22692.9,2.37774
14638,71.4824,22703.9,2.38115
14651,71.5459,22731.5,2.38355
14664,71.6094,22739.6,2.38275
14677,71.6729,22779.5,2.38828
14690,71.7363,22791,2.38939
14703,71.7998,22810.3,2.39166
14716,71.8633,22823.8,2.39322
14729,71.9268,22851.1,2.39517
14742,71.9902,22869.9,2.39762
14755,72.0537,22890.9,2.400954
14768,72.1172,22910.9,2.40296
14781,72.1807,22922.6,2.40302
14794,72.2441,22961.6,2.40708
14807,72.3076,22952.1,2.40857
14820,72.3711,22997.5,2.41074
14833,72.43457,23005.6,2.41168
14846,72.498,23032.2,2.41552
14859,72.5615,23039.6,2.41679
14872,72.625,23072.8,2.41928
14885,72.6885,23083.8,2.4213
14898,72.752,23110.9,2.42358
14911,72.81543,23112.2,2.42514
14924,72.8789,23121.9,2.42703
14937,72.9424,23182.7,2.43101
14950,73.0059,23156.1,2.432013
14963,73.0693,23217.5,2.434638
14976,73.1328,23237.6,2.436394
14989,73.1963,23259,2.43962
15002,73.2598,23266.8,2.44068
15015,73.3232,23281.8,2.44158
15028,73.3867,23323.8,2.44536
15041,73.4502,23340.4,2.44786
15054,73.5137,23368.2,2.45055
15067,73.5771,23373.5,2.45143
15080,73.6406,23400.3,2.454869
15093,73.7041,23394.9,2.45619
15106,73.7676,23446.2,2.46027
15119,73.8311,23448.3,2.46024
15132,73.8945,23477.4,2.46329
15145,73.958,23505.8,2.46523
15158,74.0215,23510.4,2.46564
15171,74.085,23535.7,2.46896
15184,74.1484,23550.3,2.47006
15197,74.2119,23582.7,2.473387
15210,74.2754,23579.5,2.47515
15223,74.3389,23610.2,2.47766
15236,74.4023,23613.2,2.47906
15249,74.46582,23649.1,2.48139
15262,74.5293,23666.5,2.483463
15275,74.5928,23676.3,2.48476
15288,74.65625,23712.6,2.48878
15301,74.7197,23694,2.48821
15314,74.7832,23745.5,2.49249
15327,74.84668,23752.7,2.49278
15340,74.9102,23783.1,2.49616
15353,74.9736,23808.9,2.49842
15366,75.0371,23835.6,2.50046
15379,75.1006,23829,2.5025
15392,75.1641,23868.3,2.503788
15405,75.2275,23896.7,2.50681
15418,75.291,23879.7,2.50728
15431,75.3545,23933.7,2.51127
15444,75.418,23914.9,2.51276
15457,75.4814,23963.9,2.51425
15470,75.5449,23982.6,2.51676
15483,75.6084,23994.7,2.5182
15496,75.6719,24023.8,2.52133
15509,75.7354,24037.9,2.52215
15522,75.7988,24060.7,2.52541
15535,75.8623,24078.3,2.52682
15548,75.9258,24096.3,2.53037
15561,75.9893,24108.9,2.53111
15574,76.0527,24139.2,2.53499
15587,76.1162,24153,2.53609
15600,76.1797,24174.8,2.53785
15613,76.2432,24184.8,2.54042
15626,76.3066,24210.3,2.54192
15639,76.3701,24228.7,2.54523
15652,76.4336,24244.2,2.54632
15665,76.49707,24269.2,2.548547
15678,76.5605,24269.9,2.550842
15691,76.624,24307.6,2.55321
15704,76.6875,24313.2,2.55379
15717,76.751,24353.6,2.55699
15730,76.8145,24363.1,2.55779
15743,76.87793,24389,2.561147
15756,76.9414,24414,2.56338
15769,77.0049,24418,2.56432
15782,77.0684,24434.6,2.56863
15795,77.1318,24448.3,2.56777
15808,77.1953,24492.5,2.57264
15821,77.2588,24504.1,2.57434
15834,77.3223,24525.3,2.57548
15847,77.3857,24530.7,2.57717
15860,77.4492,24568.6,2.57921
15873,77.5127,24583.4,2.58118
15886,77.5762,24600.1,2.58576
15899,77.6396,24631.3,2.58721
15912,77.7031,24637.4,2.588316
15925,77.7666,24666.5,2.59072
15938,77.8301,24676.2,2.59218
15951,77.8936,24707.2,2.59494
15964,77.957,24719.6,2.59707
15977,78.0205,24745.4,2.60022
15990,78.084,24747.4,2.60123
16003,78.1475,24781.1,2.60321
16016,78.2109,24801.6,2.60546
16029,78.2744,24820.1,2.60707
16042,78.3379,24839.3,2.60897
16055,78.4014,24838.4,2.61049
16068,78.4648,24883.9,2.61428
16081,78.52832,24899.1,2.61556
16094,78.5918,24908.4,2.62013
16107,78.6553,24937.3,2.62025
16120,78.71875,24960.4,2.62238
16133,78.7822,24969.4,2.62503
16146,78.8457,24990.6,2.6264
16159,78.90918,25015.7,2.62794
16172,78.9727,25034.5,2.6306
16185,79.0361,25059.8,2.63221
16198,79.0996,25051.8,2.63443
16211,79.1631,25102.3,2.63764
16224,79.2266,25116.2,2.63979
16237,79.29,25124.5,2.64063
16250,79.3535,25156.6,2.64404
16263,79.417,25161.6,2.64491
16276,79.4805,25204.6,2.64915
16289,79.5439,25217.6,2.65016
16302,79.6074,25240.9,2.65222
16315,79.6709,25236.2,2.65344
16328,79.7344,25266.2,2.65765
16341,79.7979,25276.8,2.65747
16354,79.8613,25322.7,2.66122
16367,79.9248,25331.1,2.66251
16380,79.9883,25359,2.66476
16393,80.0518,25378.3,2.66833
16406,80.1152,25364.3,2.66798
16419,80.1787,25411.7,2.67166
16432,80.2422,25422.2,2.67265
16445,80.3057,25452,2.67529
16458,80.3691,25458.6,2.67815
16471,80.4326,25498.2,2.67957
16484,80.4961,25501.2,2.68093
16497,80.55957,25527.2,2.68386
16510,80.623,25551.6,2.68598
16523,80.6865,25557.5,2.686281
16536,80.75,25599.2,2.69128
16549,80.8135,25578.5,2.6916
16562,80.877,25635.3,2.69588
16575,80.94043,25640.4,2.69579
16588,81.0039,25663.3,2.696959
16601,81.0674,25683.1,2.700866
16614,81.1309,25711,2.70375
16627,81.1943,25720.8,2.70409
16640,81.2578,25743.9,2.70688
16653,81.3213,25762.3,2.70975
16666,81.3848,25779.1,2.71106
16679,81.4482,25812.6,2.71501
16692,81.5117,25806.2,2.71489
16705,81.5752,25848.7,2.718
16718,81.6387,25861.1,2.7203
16731,81.7021,25874.3,2.72242
16744,81.7656,25896.5,2.72507
16757,81.8291,25925.2,2.72721
16770,81.8926,25928.2,2.72868
16783,81.9561,25961.4,2.730989
16796,82.0195,25970.6,2.73334
16809,82.083,25991,2.73379
16822,82.1465,26021.5,2.73738
16835,82.21,26000,2.73646
16848,82.2734,26065.6,2.74168
16861,82.3369,26070,2.74295
16874,82.4004,26082.6,2.74528
16887,82.4639,26110.2,2.74724
16900,82.5273,26114,2.74948
16913,82.59082,26153.7,2.75207
16926,82.6543,26162.2,2.75259
16939,82.7178,26191.7,2.75617
16952,82.78125,26201.5,2.757112
16965,82.8447,26226.3,2.75964
16978,82.9082,26215.9,2.76238
16991,82.97168,26261.7,2.76476
17004,83.0352,26281.5,2.76725
17017,83.0986,26282.3,2.76683
17030,83.1621,26313.8,2.77111
17043,83.2256,26329.2,2.77278
17056,83.2891,26365.7,2.77509
17069,83.3525,26378,2.77664
17082,83.416,26391.9,2.77807
17095,83.4795,26398.3,2.78166
17108,83.543,26438.1,2.78303
17121,83.6064,26452.1,2.78396
17134,83.6699,26472.1,2.7866
17147,83.7334,26501.9,2.79001
17160,83.7969,26494.9,2.78991
17173,83.8604,26539.2,2.79461
17186,83.9238,26526.9,2.7943
17199,83.9873,26565.2,2.797497
17212,84.0508,26593.2,2.79999
17225,84.1143,26613.4,2.80145
17238,84.1777,26623,2.804065
17251,84.2412,26653.5,2.80747
17264,84.3047,26662.4,2.8071
17277,84.3682,26692.6,2.81012
17290,84.4316,26707.6,2.81269
17303,84.4951,26702.9,2.81402
17316,84.5586,26758.9,2.81727
17329,84.62207,26758.9,2.81816
17342,84.6855,26778,2.82006
17355,84.749,26796.3,2.8224
17368,84.8125,26811.9,2.82456
17381,84.876,26839.2,2.82533
17394,84.9395,26844.5,2.82878
17407,85.00293,26876.6,2.83184
17420,85.0664,26885.5,2.83314
17433,85.1299,26921.2,2.83572
17446,85.1934,26921.8,2.83756
17459,85.2568,26947.7,2.83898
17472,85.3203,26966.8,2.84208
17485,85.3838,26991.7,2.84361
17498,85.4473,27011.3,2.8474
17511,85.5107,27012.8,2.84739
17524,85.5742,27043,2.85018
17537,85.6377,27061.4,2.85229
17550,85.7012,27088,2.85434
17563,85.7646,27106.8,2.85752
17576,85.8281,27135.2,2.85881
17589,85.8916,27131.5,2.86053
17602,85.9551,27169.8,2.86306
17615,86.0186,27180.4,2.86368
17628,86.082,27205.4,2.86718
17641,86.1455,27224.9,2.86971
17654,86.209,27226.5,2.87093
17667,86.2725,27266.5,2.87481
17680,86.3359,27277,2.87465
17693,86.3994,27305.8,2.87887
17706,86.4629,27296.1,2.87969
17719,86.5264,27337.6,2.88286
17732,86.5898,27344,2.88432
17745,86.65332,27379.3,2.88682
17758,86.7168,27397.3,2.88865
17771,86.7803,27404.4,2.88888
17784,86.84375,27436.1,2.89429
17797,86.9072,27435.5,2.89199
17810,86.9707,27479.2,2.89716
17823,87.03418,27486.4,2.89988
17836,87.0977,27501,2.900214
17849,87.1611,27521.6,2.90338
17862,87.2246,27549.7,2.90437
17875,87.2881,27557.7,2.90789
17888,87.3516,27585.2,2.9102
17901,87.415,27609.5,2.91274
17914,87.4785,27612.2,2.91366
17927,87.542,27645.2,2.91643
17940,87.6055,27651.7,2.9176
17953,87.6689,27684.8,2.92132
17966,87.7324,27685,2.92328
17979,87.7959,27706.4,2.92457
17992,87.8594,27740.2,2.92585
18005,87.9229,27750.9,2.92655
18018,87.9863,27766.4,2.9306
18031,88.0498,27797.8,2.93257
18044,88.1133,27824.5,2.93492
18057,88.1768,27826.1,2.93634
18070,88.2402,27858.2,2.9403
18083,88.3037,27845.9,2.94149
18096,88.3672,27899.4,2.94504
18109,88.4307,27910.4,2.94503
18122,88.4941,27916.6,2.94713
18135,88.5576,27944.3,2.95031
18148,88.6211,27962.2,2.95139
18161,88.68457,27991,2.95412
18174,88.748,28011.9,2.95749
18187,88.8115,28029.8,2.96109
18200,88.875,28030.3,2.95976
18213,88.9385,28067.8,2.96291
18226,89.002,28072.4,2.96474
18239,89.06543,28111.3,2.96769
18252,89.1289,28114.6,2.96857
18265,89.1924,28142.3,2.97095
18278,89.2559,28163.8,2.973619
18291,89.3193,28168.7,2.97415
18304,89.3828,28200.9,2.97714
18317,89.4463,28211.1,2.98009
18330,89.5098,28226.4,2.98107
18343,89.5732,28242.7,2.98347
18356,89.6367,28283.1,2.98677
18369,89.7002,28279.8,2.987798
18382,89.7637,28304,2.98864
18395,89.8271,28326.5,2.9925
18408,89.8906,28347.7,2.99636
18421,89.9541,28376.9,2.99735
18434,90.0176,28346.7,2.99741
18447,90.0811,28400.3,3.00106
18460,90.1445,28418.6,3.00304
18473,90.208,28440.6,3.00515
18486,90.2715,28455.3,3.0078
18499,90.335,28480.1,3.01012
18512,90.3984,28480.4,3.01323
18525,90.4619,28523,3.01462
18538,90.5254,28542.9,3.01668
18551,90.5889,28530.7,3.018724
18564,90.6523,28580.9,3.02153
18577,90.71582,28567.6,3.02105
18590,90.7793,28604.5,3.02525
18603,90.8428,28626.5,3.02713
18616,90.90625,28643.8,3.02768
18629,90.9697,28662.6,3.03134
18642,91.0332,28673.4,3.03235
18655,91.09668,28699.4,3.03504
18668,91.1602,28713.8,3.036278
18681,91.2236,28741.6,3.03809
18692,91.2773,-4242.12,3.41853