File: ASM109_2021_data/MTS/UD/MTS_UD_5.csv
,Time [s],Load [N],Displacement [mm]
0,0.0078125,-257.582,0.00189453
14,0.0761719,-252.844,0.001093
28,0.144531,-243.865,0.005210638
42,0.212891,-240.634,0.0059326
56,0.28125,-244.814,0.00939265
70,0.349609,-193.665,0.0134598
84,0.417969,-174.742,0.0141983
98,0.486328,-175.851,0.0147088
112,0.5546875,-143.489,0.0188296
126,0.623047,-119.649,0.0209713
140,0.691406,-94.3058,0.0243348
154,0.759766,-66.914,0.0250648
168,0.828125,-42.1676,0.0277229
182,0.896484,-50.9205,0.0292571
196,0.964844,-3.41746,0.03242299
210,1.0332,25.1344,0.0331552
224,1.10156,52.2586,0.0368111
238,1.16992,62.8148,0.0380409
252,1.23828,102.983,0.0411884
266,1.30664,89.557,0.0421438
280,1.375,143.143,0.0464527
294,1.44336,152.248,0.0469771
308,1.51172,183.408,0.049029
322,1.58008,184.559,0.0507487
336,1.64844,219.18,0.0557967
350,1.7168,234.151,0.0546429
364,1.78516,260.624,0.0602759
378,1.85352,285.269,0.0618598
392,1.921875,308.234,0.06338954
406,1.99023,301.263,0.0649327
420,2.05859,356.919,0.0678612
434,2.12695,377.32,0.0691724
448,2.19531,382.436,0.0722761
462,2.26367,409.729,0.0755779
476,2.33203,445.046,0.0770241
490,2.40039,458.389,0.0783102
504,2.46875,484.601,0.0808476
518,2.53711,525.959,0.08317396
532,2.60547,508.705,0.08329466
546,2.67383,557.931,0.090424
560,2.74219,580.985,0.0895388
574,2.81055,608.021,0.0943109
588,2.87891,601.91,0.0944048
602,2.94727,656.828,0.0971076
616,3.015625,645.509,0.0977205
630,3.08398,695.24,0.102152
644,3.15234,701.172,0.103799
658,3.2207,742.965,0.108475
672,3.28906,735.572,0.107231
686,3.35742,789.077,0.111697
700,3.42578,797.193,0.112429
714,3.49414,819.824,0.114692
728,3.5625,828.66,0.118168
742,3.63086,875.495,0.121199
756,3.69922,854.187,0.123075
770,3.76758,918.364,0.124623
784,3.83594,933.886,0.126236
798,3.9043,956.207,0.130129
812,3.97266,966.566,0.132087
826,4.04102,1006.92,0.134132
840,4.109375,996.835,0.135043
854,4.17773,1039.3,0.138945
868,4.24609,1063.15,0.142107
882,4.31445,1081.47,0.140996
896,4.38281,1094.57,0.147178
910,4.45117,1136.55,0.147933
924,4.51953,1152.92,0.150119
938,4.58789,1168.38,0.1508756
952,4.65625,1210.16,0.154898
966,4.72461,1208.99,0.155022
980,4.79297,1249.71,0.158079
994,4.86133,1266.22,0.160178
1008,4.92969,1304.83,0.164103
1022,4.99805,1280.21,0.165121
1036,5.06641,1338.71,0.167803
1050,5.13477,1361.39,0.169779
1064,5.203125,1376.12,0.171933
1078,5.27148,1385.58,0.175608
1092,5.33984,1426.47,0.178353
1106,5.4082,1426.71,0.178539
1120,5.47656,1463.59,0.181877
1134,5.54492,1483.71,0.18365
1148,5.61328,1518.27,0.1869911
1162,5.68164,1514.39,0.1873818
1176,5.75,1557.86,0.191424
1190,5.81836,1581.85,0.192462
1204,5.88672,1594.04,0.19385
1218,5.95508,1620.01,0.197479
1232,6.02344,1648.9,0.20105
1246,6.0918,1647.76,0.201265
1260,6.16016,1691.48,0.20394
1274,6.22852,1716.65,0.206522
1288,6.296875,1724.05,0.20698
1302,6.36523,1749.6,0.210945
1316,6.43359,1778.55,0.213259
1330,6.50195,1799.81,0.215859
1344,6.57031,1795.59,0.218385
1358,6.63867,1843.98,0.220462
1372,6.70703,1835.39,0.220113
1386,6.77539,1886.48,0.224626
1400,6.84375,1904.91,0.225761
1414,6.91211,1930.56,0.228656
1428,6.98047,1913.01,0.230668
1442,7.04883,1972.72,0.234698
1456,7.11719,1974.04,0.23366
1470,7.18555,2021.09,0.238171
1484,7.25391,2031.11,0.240095
1498,7.32227,2072.73,0.244385
1512,7.390625,2062.31,0.242502
1526,7.45898,2110.89,0.246804
1540,7.52734,2123.96,0.249354
1554,7.5957,2147.2,0.250164
1568,7.66406,2169.05,0.253918
1582,7.73242,2203.69,0.257813
1596,7.80078,2197.91,0.258729
1610,7.86914,2243.18,0.260055
1624,7.9375,2267.96,0.263938
1638,8.00586,2284.09,0.267315
1652,8.07422,2306.45,0.268558
1666,8.14258,2334.25,0.270648
1680,8.21094,2359.93,0.272021
1694,8.2793,2369.44,0.27322
1708,8.34766,2392.19,0.277978
1722,8.41602,2424.25,0.278829
1736,8.484375,2421.24,0.281434
1750,8.55273,2457.1,0.2839011
1764,8.62109,2482.42,0.286198
1778,8.68945,2479.47,0.288468
1792,8.75781,2540.79,0.2914989
1806,8.82617,2535.11,0.290887
1820,8.89453,2569.42,0.293884
1834,8.96289,2574.17,0.298837
1848,9.03125,2621.92,0.300656
1862,9.09961,2616.32,0.301295
1876,9.16797,2664.04,0.304247
1890,9.23633,2683.75,0.305555
1904,9.30469,2707.23,0.309527
1918,9.37305,2706.14,0.311127
1932,9.44141,2756.96,0.313862
1946,9.50977,2772.58,0.31481
1960,9.578125,2790.16,0.317626
1974,9.64648,2807.11,0.320769
1988,9.71484,2839.61,0.320904
2002,9.7832,2829.21,0.325191
2016,9.85156,2880.38,0.328304
2030,9.91992,2900.54,0.328724
2044,9.98828,2910.7,0.330269
2058,10.0566,2942.9,0.332827
2072,10.125,2960.22,0.335799
2086,10.1934,2960.07,0.338115
2100,10.2617,3016.19,0.34043
2114,10.3301,3037.77,0.343591
2128,10.3984,3042.05,0.343775
2142,10.4668,3070.64,0.348149
2156,10.5352,3095.67,0.3497614
2170,10.6035,3126.75,0.3514941
2184,10.6719,3133.23,0.352474
2198,10.7402,3175.96,0.356915
2212,10.8086,3161.92,0.358192
2226,10.877,3212.66,0.361085
2240,10.9453,3224.61,0.36284
2254,11.0137,3255.28,0.366144
2268,11.082,3257.9,0.366852
2282,11.1504,3306.03,0.37108
2296,11.21875,3310.06,0.370287
2310,11.2871,3339.63,0.373836
2324,11.3555,3341.51,0.376411
2338,11.4238,3395.89,0.38038
2352,11.4922,3391.99,0.380993
2366,11.5605,3433.71,0.383798
2380,11.6289,3436.46,0.385313
2394,11.6973,3461.26,0.387584
2408,11.7656,3475.43,0.390444
2422,11.834,3532.41,0.394563
2436,11.9023,3533.25,0.395266
2450,11.9707,3567.84,0.398243
2464,12.0391,3583.01,0.3986375
2478,12.1074,3613.35,0.401595
2492,12.1758,3624.62,0.404125
2506,12.2441,3655.68,0.406336
2520,12.3125,3670.28,0.409431
2534,12.3809,3680.25,0.409925
2548,12.4492,3718.2,0.413499
2562,12.5176,3724.46,0.414686
2576,12.5859,3741.83,0.417546
2590,12.6543,3787.73,0.420227
2604,12.7227,3813.63,0.423577
2618,12.791,3806.22,0.423781
2632,12.8594,3863.24,0.429212
2646,12.9277,3838.49,0.427544
2660,12.9961,3899.38,0.432202
2674,13.0645,3907.39,0.43345
2688,13.1328,3946.36,0.43653
2702,13.2012,3916.68,0.436187
2716,13.2695,3979.39,0.43987
2730,13.3379,3997.38,0.443898
2744,13.40625,4026.78,0.444936
2758,13.4746,4043.85,0.447524
2772,13.543,4079.57,0.450785
2786,13.6113,4099.1,0.452005
2800,13.6797,4118.85,0.454738
2814,13.748,4147.33,0.457768
2828,13.8164,4158.75,0.457927
2842,13.8848,4164.8,0.460892
2856,13.9531,4202.92,0.464021
2870,14.0215,4226.45,0.465644
2884,14.0898,4241.35,0.4670839
2898,14.1582,4276.8,0.4717268
2912,14.2266,4281.46,0.472606
2926,14.2949,4316.22,0.474498
2940,14.3633,4334.06,0.477311
2954,14.4316,4367.93,0.478775
2968,14.5,4364.55,0.481065
2982,14.5684,4407.2,0.483655
2996,14.6367,4416.76,0.484688
3010,14.7051,4458.91,0.489175
3024,14.7734,4441.85,0.489793
3038,14.8418,4492.95,0.492467
3052,14.9102,4486.43,0.493854
3066,14.9785,4527.25,0.4980813
3080,15.0469,4546.34,0.499398
3094,15.1152,4585.06,0.502926
3108,15.1836,4575.2,0.503379
3122,15.252,4629.76,0.506359
3136,15.3203,4637.98,0.508547
3150,15.3887,4659.73,0.511267
3164,15.457,4683.49,0.514042
3178,15.5254,4716.09,0.516791
3192,15.59375,4703.63,0.5162
3206,15.6621,4752.38,0.52149
3220,15.7305,4775.35,0.523457
3234,15.7988,4800.9,0.523661
3248,15.8672,4799.1,0.526918
3262,15.9355,4845.2,0.529154
3276,16.0039,4855.9,0.530337
3290,16.0723,4887.65,0.533789
3304,16.1406,4916.47,0.536549
3318,16.209,4929.25,0.539361
3332,16.2773,4948,0.539951
3346,16.3457,4975.42,0.5416609
3360,16.4141,4996.42,0.547187
3374,16.4824,5009.23,0.547732
3388,16.5508,5035.83,0.550499
3402,16.6191,5048.76,0.549996
3416,16.6875,5081.58,0.555102
3430,16.7559,5094.77,0.55594
3444,16.8242,5129.38,0.559328
3458,16.8926,5130.79,0.559907
3472,16.9609,5176.72,0.564905
3486,17.0293,5190.4,0.565887
3500,17.0977,5208.98,0.568486
3514,17.166,5233.33,0.570384
3528,17.2344,5265.05,0.573276
3542,17.3027,5259.8,0.574861
3556,17.3711,5291.95,0.578661
3570,17.4395,5329.19,0.579839
3584,17.5078,5349.68,0.581992
3598,17.5762,5354.5,0.5841006
3612,17.6445,5398.81,0.587794
3626,17.7129,5417,0.587943
3640,17.78125,5430.09,0.591486
3654,17.8496,5462.17,0.593775
3668,17.918,5486.34,0.595924
3682,17.9863,5496.76,0.598122
3696,18.0547,5523.47,0.599725
3710,18.123,5550.98,0.601835
3724,18.1914,5551.15,0.603152
3738,18.2598,5594.22,0.606697
3752,18.3281,5597.43,0.607121
3766,18.3965,5630.6,0.61098
3780,18.4648,5667.39,0.613955
3794,18.5332,5691.81,0.618095
3808,18.6016,5660.48,0.616191
3822,18.6699,5727.37,0.6205107
3836,18.7383,5747.54,0.623174
3850,18.8066,5771.71,0.625516
3864,18.875,5765.09,0.627406
3878,18.9434,5808.61,0.631101
3892,19.0117,5801.77,0.630295
3906,19.0801,5853.06,0.633984
3920,19.1484,5862.69,0.637022
3934,19.2168,5903.62,0.638922
3948,19.2852,5898.97,0.64186
3962,19.3535,5946.77,0.644019
3976,19.4219,5961.39,0.645651
3990,19.4902,5987.36,0.648843
4004,19.5586,6008.86,0.649595
4018,19.627,6036.88,0.654986
4032,19.6953,6031.47,0.654995
4046,19.7637,6067.44,0.658071
4060,19.832,6093.41,0.660125
4074,19.9004,6116.27,0.661116
4088,19.96875,6113.96,0.664221
4102,20.0371,6156.11,0.664822
4116,20.1055,6183.14,0.668696
4130,20.1738,6198.88,0.669706
4144,20.2422,6235.13,0.673682
4158,20.3105,6214.5,0.674704
4172,20.3789,6264.6,0.677315
4186,20.4473,6296.46,0.680676
4200,20.5156,6315.77,0.68168
4214,20.584,6305.78,0.682985
4228,20.6523,6356.95,0.686239
4242,20.7207,6365.43,0.6873219
4256,20.7891,6391.38,0.6914829
4270,20.8574,6418.69,0.692187
4284,20.9258,6457.84,0.695962
4298,20.9941,6437.93,0.696213
4312,21.0625,6498.6,0.702652
4326,21.1309,6484.88,0.701829
4340,21.1992,6529.1,0.704458
4354,21.2676,6545.37,0.706519
4368,21.3359,6580.04,0.710764
4382,21.4043,6574.28,0.711158
4396,21.4727,6604.63,0.714059
4410,21.541,6629.91,0.7158972
4424,21.6094,6656.88,0.718649
4438,21.6777,6673.56,0.721321
4452,21.7461,6712.77,0.724027
4466,21.8145,6729.34,0.726202
4480,21.8828,6751.41,0.727945
4494,21.9512,6772.99,0.730688
4508,22.0195,6801.84,0.731951
4522,22.0879,6809.58,0.7350688
4536,22.15625,6827.97,0.737158
4550,22.2246,6866.9,0.740076
4564,22.293,6848.23,0.739836
4578,22.3613,6912.42,0.745653
4592,22.4297,6903.03,0.744743
4606,22.498,6945.29,0.747841
4620,22.5664,6965.47,0.751884
4634,22.6348,7004.63,0.754527
4648,22.7031,6995.72,0.754691
4662,22.7715,7035.92,0.757968
4676,22.8398,7051.37,0.760702
4690,22.9082,7079.03,0.761519
4704,22.9766,7075.64,0.764173
4718,23.0449,7131.1,0.7678901
4732,23.1133,7121.32,0.769437
4746,23.1816,7157.87,0.770665
4760,23.25,7183.44,0.7740618
4774,23.3184,7215.75,0.777991
4788,23.3867,7214.85,0.777112
4802,23.4551,7266.59,0.781076
4816,23.5234,7281,0.782696
4830,23.5918,7295.96,0.783965
4844,23.6602,7306.42,0.787604
4858,23.7285,7349.23,0.789857
4872,23.7969,7346.94,0.7924931
4886,23.8652,7388.86,0.794764
4900,23.9336,7416.21,0.798507
4914,24.002,7407.03,0.797803
4928,24.0703,7441.58,0.802567
4942,24.1387,7470.94,0.802972
4956,24.207,7489.73,0.805326
4970,24.2754,7500.2,0.80642
4984,24.34375,7542.72,0.81073
4998,24.4121,7561.74,0.8126651
5012,24.4805,7579.92,0.813769
5026,24.5488,7600.64,0.817847
5040,24.6172,7624,0.819686
5054,24.6855,7609.55,0.820126
5068,24.7539,7668.54,0.825371
5082,24.8223,7670.3,0.823761
5096,24.8906,7713.02,0.829317
5110,24.959,7729.04,0.830335
5124,25.0273,7765.57,0.833884
5138,25.0957,7760.61,0.834513
5152,25.1641,7808.06,0.838599
5166,25.2324,7821.59,0.840402
5180,25.3008,7851.25,0.842135
5194,25.3691,7849.24,0.844504
5208,25.4375,7887.69,0.846274
5222,25.5059,7904.66,0.847622
5236,25.5742,7926.56,0.850762
5250,25.6426,7950.24,0.853487
5264,25.7109,7977.76,0.856388
5278,25.7793,7984.31,0.858883
5292,25.8477,8024.23,0.861613
5306,25.916,8045.11,0.863247
5320,25.9844,8051.45,0.86426
5334,26.0527,8091.24,0.8680017
5348,26.1211,8098.67,0.868258
5362,26.1895,8128.29,0.871365
5376,26.2578,8143.53,0.872748
5390,26.3262,8179.79,0.876627
5404,26.3945,8167.15,0.8765043
5418,26.4629,8219.31,0.880495
5432,26.53125,8230.57,0.884187
5446,26.5996,8258.31,0.884753
5460,26.668,8264.8,0.8858608
5474,26.7363,8315.86,0.891847
5488,26.8047,8297.44,0.890445
5502,26.873,8348.21,0.893628
5516,26.9414,8357.69,0.896396
5530,27.0098,8404.01,0.900384
5544,27.0781,8378.97,0.902694
5558,27.1465,8441.33,0.904219
5572,27.2148,8441.6,0.906246
5586,27.2832,8475.09,0.90837
5600,27.3516,8475.5,0.910187
5614,27.4199,8525.49,0.912962
5628,27.4883,8517.69,0.915158
5642,27.5566,8573.23,0.917639
5656,27.625,8592.67,0.91945
5670,27.6934,8605.74,0.920946
5684,27.7617,8636.42,0.9240098
5698,27.8301,8654.5,0.9265883
5712,27.8984,8659.44,0.927707
5726,27.9668,8684.87,0.930138
5740,28.0352,8711.33,0.933561
5754,28.1035,8735.81,0.935351
5768,28.1719,8761.17,0.938919
5782,28.2402,8788.68,0.939704
5796,28.3086,8806.51,0.942149
5810,28.377,8816.78,0.942673
5824,28.4453,8862.39,0.947964
5838,28.5137,8835.07,0.948188
5852,28.582,8888.01,0.9517653
5866,28.6504,8904.88,0.953542
5880,28.71875,8950.86,0.95742
5894,28.7871,8945.69,0.956985
5908,28.8555,8988.78,0.961861
5922,28.9238,8969,0.96143
5936,28.9922,9019.59,0.964378
5950,29.0605,9035.07,0.967365
5964,29.1289,9067.12,0.969159
5978,29.1973,9047.75,0.970463
5992,29.2656,9116.48,0.97416
6006,29.334,9140.39,0.977231
6020,29.4023,9150.78,0.977461
6034,29.4707,9177.61,0.980548
6048,29.5391,9198.21,0.982643
6062,29.6074,9212.81,0.983891
6076,29.6758,9233.92,0.987228
6090,29.7441,9276.61,0.991629
6104,29.8125,9277.34,0.991243
6118,29.8809,9294.88,0.994798
6132,29.9492,9342.96,0.99775
6146,30.0176,9360.25,0.99944
6160,30.0859,9347.96,0.999839
6174,30.1543,9403.96,1.00572
6188,30.2227,9408.51,1.00586
6202,30.291,9428.39,1.00824
6216,30.3594,9438.09,1.00838
6230,30.4277,9481.45,1.01397
6244,30.4961,9477.04,1.01454
6258,30.5645,9525.27,1.01719
6272,30.6328,9549.06,1.01987
6286,30.7012,9577.09,1.02102
6300,30.7695,9587.4,1.02449
6314,30.8379,9619.78,1.02727
6328,30.90625,9623.13,1.02758
6342,30.9746,9654.54,1.03205
6356,31.043,9680.68,1.03384
6370,31.1113,9702.28,1.03691
6384,31.1797,9688.79,1.03689
6398,31.248,9747.21,1.04054
6412,31.3164,9761.26,1.04163
6426,31.3848,9778.34,1.04464
6440,31.4531,9810.26,1.04822
6454,31.5215,9832.75,1.04987
6468,31.5898,9842.08,1.0515
6482,31.6582,9871.72,1.054451
6496,31.7266,9891.78,1.05668
6510,31.7949,9924.34,1.05789
6524,31.8633,9940.08,1.06107
6538,31.9316,9967.47,1.06349
6552,32.0,9977.46,1.06518
6566,32.0684,9996.85,1.06635
6580,32.1367,10032.4,1.0712
6594,32.2051,10029.8,1.07106
6608,32.2734,10065.4,1.075374
6622,32.3418,10092.4,1.07737
6636,32.4102,10118.5,1.07829
6650,32.4785,10108.6,1.07965
6664,32.5469,10160.1,1.08574
6678,32.6152,10153,1.08504
6692,32.6836,10198.9,1.08815
6706,32.752,10215.1,1.08935
6720,32.8203,10249.2,1.09229
6734,32.8887,10252.8,1.0929
6748,32.957,10292.4,1.0976
6762,33.0254,10304.8,1.09833
6776,33.09375,10327.3,1.10245
6790,33.1621,10340.2,1.10562
6804,33.2305,10375.2,1.10695
6818,33.2988,10378,1.10799
6832,33.3672,10423.6,1.11037
6846,33.4355,10444.1,1.11462
6860,33.5039,10452.1,1.11445
6874,33.5723,10467.5,1.117626
6888,33.6406,10500.1,1.11981
6902,33.709,10520.7,1.12175
6916,33.7773,10538.4,1.124463
6930,33.8457,10568.4,1.12677
6944,33.9141,10574.7,1.12853
6958,33.9824,10606,1.13132
6972,34.0508,10632.2,1.13301
6986,34.1191,10652,1.13563
7000,34.1875,10660.3,1.13715
7014,34.2559,10697.9,1.14056
7028,34.3242,10707.5,1.14123
7042,34.3926,10741,1.14613
7056,34.4609,10756.6,1.14582
7070,34.5293,10801.4,1.15066
7084,34.5977,10761.4,1.150179
7098,34.666,10833.9,1.15369
7112,34.7344,10840.5,1.15552
7126,34.8027,10876.4,1.15908
7140,34.8711,10876.6,1.16113
7154,34.9395,10913.4,1.16377
7168,35.0078,10920,1.16468
7182,35.0762,10950.8,1.16805
7196,35.1445,10974.6,1.1702
7210,35.2129,10987.4,1.1711
7224,35.28125,10995.6,1.17516
7238,35.3496,11052.4,1.17688
7252,35.418,11066,1.17953
7266,35.4863,11092.1,1.18195
7280,35.5547,11108,1.18443
7294,35.623,11128.4,1.18569
7308,35.6914,11133.3,1.18657
7322,35.7598,11174.3,1.19186
7336,35.8281,11193.8,1.1932
7350,35.8965,11204,1.19539
7364,35.9648,11246,1.19911
7378,36.0332,11248.4,1.198373
7392,36.1016,11284.9,1.20252
7406,36.1699,11285.7,1.20496
7420,36.2383,11334,1.20698
7434,36.3066,11327.9,1.20699
7448,36.375,11365.2,1.21106
7462,36.4434,11391.6,1.21374
7476,36.5117,11414.2,1.2164
7490,36.5801,11410.6,1.217819
7504,36.6484,11461.3,1.21993
7518,36.7168,11456.5,1.22228
7532,36.7852,11491.7,1.224208
7546,36.8535,11509,1.22632
7560,36.9219,11551,1.2295
7574,36.9902,11529.9,1.23123
7588,37.0586,11590,1.23378
7602,37.127,11602.2,1.2366
7616,37.1953,11613.1,1.23724
7630,37.2637,11641.4,1.23988
7644,37.332,11670.9,1.244
7658,37.4004,11688,1.24502
7672,37.46875,11710.3,1.248229
7686,37.5371,11732.7,1.24943
7700,37.6055,11760,1.25188
7714,37.6738,11770.4,1.254837
7728,37.7422,11799.5,1.25711
7742,37.8105,11818.6,1.25786
7756,37.8789,11831.9,1.2614
7770,37.9473,11871.8,1.26444
7784,38.0156,11874.9,1.26485
7798,38.084,11909.1,1.26734
7812,38.1523,11916.4,1.2703
7826,38.2207,11948.7,1.27319
7840,38.2891,11946,1.27486
7854,38.3574,12004.7,1.27761
7868,38.4258,12007.6,1.27816
7882,38.4941,12033.2,1.280834
7896,38.5625,12051.9,1.28453
7910,38.6309,12084.2,1.2867
7924,38.6992,12068.3,1.28738
7938,38.7676,12123,1.2912
7952,38.8359,12143.6,1.29271
7966,38.9043,12174.2,1.29651
7980,38.9727,12187.8,1.29828
7994,39.041,12211.4,1.2996
8008,39.1094,12212.9,1.30033
8022,39.1777,12250.9,1.30387
8036,39.2461,12259.2,1.30675
8050,39.3145,12297.1,1.30912
8064,39.3828,12293.3,1.3116
8078,39.4512,12344.5,1.3141
8092,39.5195,12360.9,1.31594
8106,39.5879,12362.9,1.316806
8120,39.65625,12396.7,1.32079
8134,39.7246,12429.3,1.32179
8148,39.793,12416.7,1.32441
8162,39.8613,12464,1.32759
8176,39.9297,12490.3,1.33011
8190,39.998,12489.8,1.33094
8204,40.0664,12532,1.33386
8218,40.1348,12552.1,1.3349
8232,40.2031,12578.9,1.33922
8246,40.2715,12586.1,1.33962
8260,40.3398,12627.1,1.34366
8274,40.4082,12623.3,1.3455
8288,40.4766,12655.2,1.348186
8302,40.5449,12684.4,1.34953
8316,40.6133,12718.1,1.354
8330,40.6816,12703.6,1.35376
8344,40.75,12761.8,1.35924
8358,40.8184,12758.8,1.358
8372,40.8867,12782.6,1.358989
8386,40.9551,12814.5,1.36399
8400,41.0234,12838.5,1.36514
8414,41.0918,12834.4,1.36793
8428,41.1602,12881.7,1.37056
8442,41.2285,12907.5,1.37291
8456,41.2969,12916,1.37507
8470,41.3652,12932.8,1.37726
8484,41.4336,12964.3,1.3803
8498,41.502,12982.6,1.38221
8512,41.5703,13011.5,1.384462
8526,41.6387,13034.6,1.38753
8540,41.707,13043.3,1.38748
8554,41.7754,13070.7,1.39053
8568,41.84375,13090.4,1.3939
8582,41.9121,13131.2,1.39682
8596,41.9805,13122.2,1.39645
8610,42.0488,13174.2,1.40109
8624,42.1172,13145.2,1.40067
8638,42.1855,13198,1.40493
8652,42.2539,13219.4,1.40635
8666,42.3223,13253.8,1.41053
8680,42.3906,13244.2,1.41012
8694,42.459,13294,1.41431
8708,42.5273,13310.4,1.41531
8722,42.5957,13336.9,1.41947
8736,42.6641,13335.1,1.41942
8750,42.7324,13384.1,1.423211
8764,42.8008,13377.8,1.42394
8778,42.8691,13425.7,1.4276
8792,42.9375,13431,1.42992
8806,43.0059,13459.5,1.43196
8820,43.0742,13466.5,1.43484
8834,43.1426,13511.7,1.43703
8848,43.2109,13527.6,1.43772
8862,43.2793,13535.6,1.44178
8876,43.3477,13574.5,1.44393
8890,43.416,13592.5,1.44421
8904,43.4844,13609.3,1.44803
8918,43.5527,13635.8,1.45028
8932,43.6211,13662.2,1.45342
8946,43.6895,13652.7,1.45227
8960,43.7578,13696.9,1.457671
8974,43.8262,13717.2,1.45773
8988,43.8945,13731.7,1.46091
9002,43.9629,13760.2,1.46282
9016,44.03125,13792.5,1.46569
9030,44.0996,13765.3,1.46641
9044,44.168,13837.3,1.470847
9058,44.2363,13840.8,1.47116
9072,44.3047,13871,1.47562
9086,44.373,13869.7,1.47812
9100,44.4414,13920.8,1.48014
9114,44.5098,13923.3,1.48108
9128,44.5781,13947.2,1.4843
9142,44.6465,13964.2,1.48679
9156,44.7148,14002.9,1.48875
9170,44.7832,14003.9,1.49061
9184,44.8516,14056.5,1.49324
9198,44.9199,14062.7,1.496268
9212,44.9883,14081.3,1.49744
9226,45.0566,14110.7,1.49991
9240,45.125,14135.1,1.50277
9254,45.1934,14148.3,1.5043
9268,45.2617,14180.4,1.50764
9282,45.3301,14200.4,1.51069
9296,45.3984,14203.7,1.51082
9310,45.4668,14223.6,1.51421
9324,45.5352,14260.5,1.51676
9338,45.6035,14275.9,1.51834
9352,45.6719,14274.1,1.51978
9366,45.7402,14322.2,1.52349
9380,45.8086,14330.6,1.523767
9394,45.877,14354.3,1.52781
9408,45.9453,14392.2,1.52972
9422,46.0137,14417.2,1.53376
9436,46.082,14418.7,1.53429
9450,46.1504,14463.2,1.53716
9464,46.21875,14464.9,1.53854
9478,46.2871,14495.5,1.54081
9492,46.3555,14517,1.54407
9506,46.4238,14539.1,1.5464
9520,46.4922,14541.1,1.546682
9534,46.5605,14591.1,1.5514
9548,46.6289,14597.7,1.55102
9562,46.6973,14619,1.55462
9576,46.7656,14639.2,1.55624
9590,46.834,14670.2,1.55949
9604,46.9023,14671.2,1.56174
9618,46.9707,14701.5,1.5643
9632,47.0391,14726,1.5668
9646,47.1074,14751,1.56877
9660,47.1758,14749.3,1.57137
9674,47.2441,14802.3,1.57468
9688,47.3125,14802.2,1.57498
9702,47.3809,14831,1.57712
9716,47.4492,14858.8,1.57993
9730,47.5176,14860.7,1.58052
9744,47.5859,14877.6,1.58389
9758,47.6543,14917.4,1.58654
9772,47.7227,14945.3,1.59093
9786,47.791,14962,1.59087
9800,47.8594,14992.7,1.59247
9814,47.9277,15004.8,1.59638
9828,47.9961,15027.3,1.59721
9842,48.0645,15055.6,1.60086
9856,48.1328,15081.9,1.6033
9870,48.2012,15050,1.60401
9884,48.2695,15111.5,1.60762
9898,48.3379,15137.6,1.60981
9912,48.40625,15153.4,1.61065
9926,48.4746,15173,1.61379
9940,48.543,15213.5,1.61794
9954,48.6113,15223.3,1.61803
9968,48.6797,15240.8,1.61965
9982,48.748,15269,1.62284
9996,48.8164,15287.4,1.62474
10010,48.8848,15291.7,1.62717
10024,48.9531,15336.8,1.63124
10038,49.0215,15339.6,1.63146
10052,49.0898,15371.9,1.63397
10066,49.1582,15389.6,1.63683
10080,49.2266,15416.9,1.63943
10094,49.2949,15430,1.64054
10108,49.3633,15457.8,1.644309
10122,49.4316,15481.5,1.64589
10136,49.5,15479,1.6461
10150,49.5684,15523.5,1.64997
10164,49.6367,15546.3,1.65214
10178,49.7051,15578.8,1.6538
10192,49.7734,15556.4,1.65667
10206,49.8418,15611.8,1.65941
10220,49.9102,15605.3,1.659434
10234,49.9785,15637.9,1.66379
10248,50.0469,15665,1.6651
10262,50.1152,15695.7,1.66806
10276,50.1836,15699.5,1.67028
10290,50.252,15744.3,1.67242
10304,50.3203,15739.2,1.674
10318,50.3887,15783.3,1.678086
10332,50.457,15795.9,1.67891
10346,50.5254,15827.2,1.681589
10360,50.59375,15815.5,1.68304
10374,50.6621,15863.5,1.68725
10388,50.7305,15888.2,1.68947
10402,50.7988,15903.1,1.69161
10416,50.8672,15915.4,1.69387
10430,50.9355,15953.6,1.69569
10444,51.0039,15958.4,1.69823
10458,51.0723,15981.3,1.70083
10472,51.1406,16013.9,1.70156
10486,51.209,16033.3,1.704834
10500,51.2773,16037,1.7072
10514,51.3457,16085.7,1.70959
10528,51.4141,16104.4,1.71143
10542,51.4824,16082,1.71282
10556,51.5508,16135.1,1.71643
10570,51.6191,16156.9,1.71779
10584,51.6875,16186.9,1.72109
10598,51.7559,16201.1,1.7242
10612,51.8242,16227,1.72537
10626,51.8926,16213.3,1.72733
10640,51.9609,16280.8,1.731757
10654,52.0293,16287.5,1.73143
10668,52.0977,16314.7,1.73471
10682,52.166,16315.1,1.73646
10696,52.2344,16349.5,1.73944
10710,52.3027,16365.3,1.74013
10724,52.3711,16404.9,1.74403
10738,52.4395,16408.5,1.74501
10752,52.5078,16436.3,1.74934
10766,52.5762,16431.7,1.75014
10780,52.6445,16495.9,1.753896
10794,52.7129,16502.2,1.75513
10808,52.78125,16529.3,1.75707
10822,52.8496,16546.1,1.75815
10836,52.918,16577.7,1.763079
10850,52.9863,16586.4,1.76266
10864,53.0547,16618.8,1.76698
10878,53.123,16629.9,1.76943
10892,53.1914,16650,1.77026
10906,53.2598,16682,1.77356
10920,53.3281,16705.1,1.77675
10934,53.3965,16715.6,1.7771
10948,53.4648,16746.8,1.78041
10962,53.5332,16771.6,1.78273
10976,53.6016,16759.2,1.78471
10990,53.6699,16806.5,1.78814
11004,53.7383,16833.8,1.78997
11018,53.8066,16859.9,1.79165
11032,53.875,16856.1,1.79383
11046,53.9434,16908.8,1.79534
11060,54.0117,16874.1,1.79716
11074,54.0801,16939.1,1.80061
11088,54.1484,16955.7,1.802
11102,54.2168,16986.6,1.80611
11116,54.2852,16985.7,1.80656
11130,54.3535,17021.5,1.81047
11144,54.4219,17036.9,1.81217
11158,54.4902,17049.3,1.81362
11172,54.5586,17086,1.81766
11186,54.627,17122.6,1.81934
11200,54.6953,17114.8,1.82021
11214,54.7637,17152.6,1.82398
11228,54.832,17174.7,1.82634
11242,54.9004,17187.2,1.82659
11256,54.96875,17197.6,1.83016
11270,55.0371,17235.1,1.83263
11284,55.1055,17236.6,1.83403
11298,55.1738,17260.8,1.83626
11312,55.2422,17302.7,1.83878
11326,55.3105,17320.3,1.8422
11340,55.3789,17324.4,1.84364
11354,55.4473,17366.3,1.84642
11368,55.5156,17382.6,1.85021
11382,55.584,17392.7,1.84932
11396,55.6523,17431.2,1.85392
11410,55.7207,17445.7,1.85463
11424,55.7891,17452,1.85815
11438,55.8574,17473,1.85962
11452,55.9258,17516.5,1.86347
11466,55.9941,17511.5,1.86405
11480,56.0625,17561,1.86703
11494,56.1309,17573.1,1.86943
11508,56.1992,17599.1,1.87223
11522,56.2676,17594.1,1.87468
11536,56.3359,17647.7,1.87751
11550,56.4043,17654.3,1.87906
11564,56.4727,17681.9,1.88072
11578,56.541,17690.4,1.88271
11592,56.6094,17727.4,1.88614
11606,56.6777,17726.5,1.88886
11620,56.7461,17775.1,1.89032
11634,56.8145,17787.3,1.89139
11648,56.8828,17807.8,1.89397
11662,56.9512,17835.2,1.89865
11676,57.0195,17842.2,1.89752
11690,57.0879,17871.3,1.90165
11704,57.15625,17893.3,1.90518
11718,57.2246,17917.4,1.90514
11732,57.293,17924,1.9067
11746,57.3613,17954.4,1.91135
11760,57.4297,17977.6,1.91227
11774,57.498,17985.7,1.91516
11788,57.5664,18017.9,1.91663
11802,57.6348,18045.8,1.92213
11816,57.7031,18036.2,1.91961
11830,57.7715,18101,1.92434
11844,57.8398,18094.5,1.92574
11858,57.9082,18137.6,1.9291
11872,57.9766,18125,1.9316
11886,58.0449,18180.6,1.933562
11900,58.1133,18171,1.934727
11914,58.1816,18217.2,1.93709
11928,58.25,18236.2,1.94033
11942,58.3184,18262.1,1.94253
11956,58.3867,18257.8,1.9451
11970,58.4551,18313.3,1.94795
11984,58.5234,18322.7,1.94932
11998,58.5918,18344.9,1.95089
12012,58.6602,18355,1.95327
12026,58.7285,18399.2,1.95596
12040,58.7969,18378.7,1.95692
12054,58.8652,18433.5,1.96018
12068,58.9336,18450.2,1.96302
12082,59.002,18478,1.96698
12096,59.0703,18490.4,1.96785
12110,59.1387,18516.5,1.96946
12124,59.207,18541.1,1.97246
12138,59.2754,18551.3,1.97435
12152,59.34375,18589.4,1.97759
12166,59.4121,18576.9,1.97741
12180,59.4805,18622.2,1.98095
12194,59.5488,18641.7,1.98365
12208,59.6172,18678.7,1.98741
12222,59.6855,18644.6,1.98792
12236,59.7539,18719.6,1.9907
12250,59.8223,18723.7,1.99236
12264,59.8906,18742.9,1.99532
12278,59.959,18766.5,1.99777
12292,60.0273,18804.6,2.00017
12306,60.0957,18781.1,2.00164
12320,60.1641,18828.9,2.00419
12334,60.2324,18849.5,2.0063
12348,60.3008,18889.4,2.00933
12362,60.3691,18893.7,2.01006
12376,60.4375,18912.8,2.01353
12390,60.5059,18924,2.016
12404,60.5742,18961.2,2.01793
12418,60.6426,18982.3,2.02053
12432,60.7109,19004.5,2.02096
12446,60.7793,19015.8,2.02334
12460,60.8477,19048.8,2.02617
12474,60.916,19066.8,2.0295
12488,60.9844,19081.5,2.03144
12502,61.0527,19110.7,2.03364
12516,61.1211,19127.4,2.0367
12530,61.1895,19149.4,2.038466
12544,61.2578,19166.5,2.04003
12558,61.3262,19204.5,2.04398
12572,61.3945,19211,2.04526
12586,61.4629,19233.7,2.04783
12600,61.53125,19259.2,2.05009
12614,61.5996,19274.9,2.05238
12628,61.668,19288.9,2.05231
12642,61.7363,19319.7,2.05681
12656,61.8047,19324.7,2.05768
12670,61.873,19359.5,2.06107
12684,61.9414,19375.6,2.06357
12698,62.0098,19410.7,2.0659
12712,62.0781,19395.5,2.06828
12726,62.1465,19457.4,2.07124
12740,62.2148,19447.6,2.07081
12754,62.2832,19477.5,2.07377
12768,62.3516,19499,2.07766
12782,62.4199,19529.1,2.07977
12796,62.4883,19529,2.08052
12810,62.5566,19574.3,2.08359
12824,62.625,19596.5,2.08683
12838,62.6934,19607.3,2.08746
12852,62.7617,19632.9,2.09024
12866,62.8301,19661.6,2.09288
12880,62.8984,19656.7,2.09339
12894,62.9668,19696.1,2.09677
12908,63.0352,19710.6,2.10197
12922,63.1035,19732.3,2.10065
12936,63.1719,19753.1,2.10455
12950,63.2402,19781.9,2.10637
12964,63.3086,19803.3,2.108393
12978,63.377,19808,2.10993
12992,63.4453,19852.2,2.11371
13006,63.5137,19865.1,2.11548
13020,63.582,19866.6,2.11783
13034,63.6504,19895.3,2.11941
13048,63.71875,19927.6,2.12277
13062,63.7871,19923.3,2.12297
13076,63.8555,19980,2.12791
13090,63.9238,19976.5,2.12788
13104,63.9922,20011.5,2.13114
13118,64.0605,20017.3,2.13306
13132,64.1289,20061.3,2.13658
13146,64.1973,20037.5,2.13792
13160,64.2656,20098.3,2.14005
13174,64.334,20106.1,2.14217
13188,64.4023,20137.6,2.14445
13202,64.4707,20153.8,2.14694
13216,64.5391,20187,2.14915
13230,64.6074,20192.8,2.15091
13244,64.6758,20218.1,2.15543
13258,64.7441,20244.9,2.15563
13272,64.8125,20252.7,2.15753
13286,64.8809,20274.8,2.16183
13300,64.9492,20302.7,2.16312
13314,65.0176,20327.7,2.16704
13328,65.0859,20344.2,2.16749
13342,65.1543,20367.2,2.170764
13356,65.2227,20392.5,2.17194
13370,65.291,20412.5,2.17505
13384,65.3594,20435.7,2.17572
13398,65.4277,20470,2.18018
13412,65.4961,20446.3,2.17992
13426,65.5645,20499.2,2.18431
13440,65.6328,20512.3,2.18632
13454,65.7012,20537.4,2.18909
13468,65.7695,20544.4,2.19065
13482,65.8379,20589.8,2.1929
13496,65.90625,20562.5,2.19541
13510,65.9746,20616.6,2.19905
13524,66.043,20631.4,2.19888
13538,66.1113,20671.5,2.20333
13552,66.1797,20677.6,2.20328
13566,66.248,20712.7,2.20595
13580,66.3164,20705.4,2.20688
13594,66.3848,20728.6,2.2101
13608,66.4531,20761.9,2.21427
13622,66.5215,20798.9,2.21701
13636,66.5898,20792.5,2.21939
13650,66.6582,20830.2,2.22039
13664,66.7266,20853.7,2.22386
13678,66.7949,20875.2,2.22432
13692,66.8633,20887.6,2.2258
13706,66.9316,20914.8,2.22973
13720,67.0,20935.9,2.23229
13734,67.0684,20953.7,2.23266
13748,67.1367,20984.4,2.23662
13762,67.2051,20964.3,2.23606
13776,67.2734,21019.8,2.24137
13790,67.3418,21047.7,2.24407
13804,67.4102,21068.5,2.24608
13818,67.4785,21074.1,2.24678
13832,67.5469,21105.2,2.24986
13846,67.6152,21107,2.25221
13860,67.6836,21150.1,2.25586
13874,67.752,21167.2,2.255403
13888,67.8203,21192.3,2.25958
13902,67.8887,21194.4,2.25952
13916,67.957,21232,2.2631
13930,68.0254,21243.4,2.26445
13944,68.09375,21265.5,2.26808
13958,68.1621,21284.8,2.27046
13972,68.2305,21319.8,2.27226
13986,68.2988,21313.9,2.275229
14000,68.3672,21346.1,2.27676
14014,68.4355,21382.9,2.28001
14028,68.5039,21405.2,2.28103
14042,68.5723,21411.8,2.28546
14056,68.6406,21448.3,2.28669
14070,68.709,21425.5,2.2883
14084,68.7773,21484,2.29109
14098,68.8457,21512.1,2.29526
14112,68.9141,21530.3,2.29567
14126,68.9824,21544.2,2.29862
14140,69.0508,21578.6,2.30104
14154,69.1191,21595.6,2.30274
14168,69.1875,21597.1,2.30252
14182,69.2559,21637.9,2.30897
14196,69.3242,21641.9,2.30864
14210,69.3926,21674.7,2.311007
14224,69.4609,21684.1,2.31201
14238,69.5293,21720.6,2.31685
14252,69.5977,21726.3,2.31727
14266,69.666,21754.7,2.3216
14280,69.7344,21768.3,2.3226
14294,69.8027,21803.4,2.32587
14308,69.8711,21800.3,2.32651
14322,69.9395,21854.4,2.33024
14336,70.0078,21840.6,2.33092
14350,70.0762,21885.2,2.33382
14364,70.1445,21897,2.33651
14378,70.2129,21932.9,2.33871
14392,70.28125,21921.4,2.34103
14406,70.3496,21974.6,2.34351
14420,70.418,21957.3,2.34631
14434,70.4863,21995.6,2.34839
14448,70.5547,22014.2,2.3487
14462,70.623,22049.6,2.35277
14476,70.6914,22060.3,2.35417
14490,70.7598,22085.1,2.35593
14504,70.8281,22113.2,2.35883
14518,70.8965,22126.7,2.36109
14532,70.9648,22146.3,2.36414
14546,71.0332,22169.7,2.36644
14560,71.1016,22194.9,2.36832
14574,71.1699,22211.3,2.37015
14588,71.2383,22244.1,2.3737
14602,71.3066,22239.7,2.37383
14616,71.375,22275.4,2.37752
14630,71.4434,22300.6,2.37933
14644,71.5117,22314.7,2.38116
14658,71.5801,22321.7,2.38401
14672,71.6484,22365.8,2.38686
14686,71.7168,22352.3,2.38866
14700,71.7852,22396.6,2.39029
14714,71.8535,22419.3,2.39374
14728,71.9219,22446.8,2.39691
14742,71.9902,22449,2.39593
14756,72.0586,22487.4,2.40106
14770,72.127,22501.3,2.40244
14784,72.1953,22520.3,2.40543
14798,72.2637,22546.9,2.40543
14812,72.332,22573,2.409158
14826,72.4004,22576.1,2.4114
14840,72.46875,22620.3,2.41408
14854,72.5371,22644.4,2.41645
14868,72.6055,22656.8,2.41837
14882,72.6738,22665,2.41972
14896,72.7422,22697.7,2.42309
14910,72.8105,22720.9,2.42543
14924,72.8789,22732.3,2.42666
14938,72.9473,22760.8,2.42911
14952,73.0156,22784.1,2.43261
14966,73.084,22781.8,2.43496
14980,73.1523,22823.3,2.43584
14994,73.2207,22849.3,2.43839
15008,73.2891,22852.4,2.43981
15022,73.3574,22891.5,2.44395
15036,73.4258,22898.9,2.44494
15050,73.4941,22924.6,2.44766
15064,73.5625,22928.1,2.44876
15078,73.6309,22984.5,2.45473
15092,73.6992,22967.8,2.45293
15106,73.7676,23018.6,2.45754
15120,73.8359,23020,2.45818
15134,73.9043,23049.9,2.46087
15148,73.9727,23057.9,2.4618
15162,74.041,23097.4,2.46545
15176,74.1094,23086.6,2.46739
15190,74.1777,23142.3,2.47198
15204,74.2461,23125.2,2.47336
15218,74.3145,23179.5,2.47562
15232,74.3828,23187.5,2.47779
15246,74.4512,23228.5,2.48059
15260,74.5195,23236.4,2.48279
15274,74.5879,23259.4,2.48417
15288,74.65625,23268,2.48567
15302,74.7246,23297.3,2.48873
15316,74.793,23327.5,2.491878
15330,74.8613,23347,2.49364
15344,74.9297,23374.2,2.49597
15358,74.998,23374.6,2.49648
15372,75.0664,23409,2.50141
15386,75.1348,23427,2.50368
15400,75.2031,23444.2,2.50463
15414,75.2715,23453,2.50569
15428,75.3398,23499.3,2.510473
15442,75.4082,23483.9,2.51081
15456,75.4766,23528.2,2.51587
15470,75.5449,23551.5,2.5154
15484,75.6133,23577.6,2.51909
15498,75.6816,23565.1,2.51995
15512,75.75,23599,2.52259
15526,75.8184,23618.4,2.52475
15540,75.8867,23650.1,2.52895
15554,75.9551,23660.6,2.53037
15568,76.0234,23693.6,2.53376
15582,76.0918,23678.6,2.53386
15596,76.1602,23732.9,2.53736
15610,76.2285,23754.8,2.53968
15624,76.2969,23781.7,2.54166
15638,76.3652,23782.5,2.5435
15652,76.4336,23822.9,2.54765
15666,76.502,23827,2.54786
15680,76.5703,23857.1,2.55076
15694,76.6387,23872.7,2.5539
15708,76.707,23905.2,2.55435
15722,76.7754,23909,2.55874
15736,76.84375,23951.8,2.55943
15750,76.9121,23971.1,2.5612
15764,76.9805,23976.4,2.56439
15778,77.0488,24016.5,2.56839
15792,77.1172,24014,2.566473
15806,77.1855,24052.3,2.57066
15820,77.2539,24065.7,2.57302
15834,77.3223,24094.9,2.57648
15848,77.3906,24084.9,2.57601
15862,77.459,24147.3,2.58049
15876,77.5273,24147.9,2.58248
15890,77.5957,24161.3,2.58441
15904,77.6641,24194.1,2.58688
15918,77.7324,24229.9,2.59094
15932,77.8008,24214.7,2.59128
15946,77.8691,24267.8,2.59471
15960,77.9375,24275.8,2.596597
15974,78.0059,24301,2.60027
15988,78.0742,24301.8,2.6014
16002,78.1426,24345.9,2.603322
16016,78.2109,24355.1,2.60439
16030,78.2793,24380.5,2.6074
16044,78.3477,24400,2.60936
16058,78.416,24441.1,2.61425
16072,78.4844,24423.6,2.61463
16086,78.5527,24475.2,2.61793
16100,78.6211,24494.1,2.61978
16114,78.6895,24513.8,2.62171
16128,78.7578,24538,2.62434
16142,78.8262,24536.3,2.624779
16156,78.8945,24546.2,2.62696
16170,78.9629,24590,2.63007
16184,79.03125,24612,2.63277
16198,79.0996,24614.6,2.63403
16212,79.168,24666.1,2.639
16226,79.2363,24656.5,2.63851
16240,79.3047,24697.1,2.64226
16254,79.373,24707.9,2.64491
16268,79.4414,24742.3,2.64692
16282,79.5098,24751,2.64826
16296,79.5781,24776.5,2.65035
16310,79.6465,24806.6,2.65456
16324,79.7148,24835.2,2.65712
16338,79.7832,24819.3,2.65825
16352,79.8516,24872.4,2.660943
16366,79.9199,24888.2,2.66412
16380,79.9883,24893.7,2.66424
16394,80.0566,24925.9,2.66742
16408,80.125,24950.5,2.66889
16422,80.1934,24943,2.67039
16436,80.2617,24998.4,2.67487
16450,80.3301,25006.8,2.6771
16464,80.3984,25026.4,2.67837
16478,80.4668,25050.6,2.68209
16492,80.5352,25073,2.68189
16506,80.6035,25081.1,2.68568
16520,80.6719,25107.8,2.68743
16534,80.7402,25139.4,2.691498
16548,80.8086,25146.9,2.69142
16562,80.877,25174.9,2.69412
16576,80.9453,25197.2,2.6965
16590,81.0137,25220.4,2.69916
16604,81.082,25231,2.700309
16618,81.1504,25263.2,2.704226
16632,81.21875,25267.1,2.70477
16646,81.2871,25290.9,2.70897
16660,81.3555,25319.1,2.71009
16674,81.4238,25341.8,2.71369
16688,81.4922,25326.2,2.71412
16702,81.5605,25385.1,2.71846
16716,81.6289,25379.2,2.71938
16730,81.6973,25418.1,2.7213
16744,81.7656,25412.7,2.72427
16758,81.834,25466.6,2.72671
16772,81.9023,25460.1,2.727993
16786,81.9707,25491.5,2.73171
16800,82.0391,25523.4,2.7329
16814,82.1074,25539.5,2.73578
16828,82.1758,25544.3,2.73681
16842,82.2441,25586.3,2.74058
16856,82.3125,25601.5,2.74292
16870,82.3809,25617.9,2.744427
16884,82.4492,25648.4,2.74621
16898,82.5176,25663.9,2.74985
16912,82.5859,25661.3,2.750443
16926,82.6543,25705.3,2.75562
16940,82.7227,25714.7,2.75626
16954,82.791,25726.8,2.75766
16968,82.8594,25767.5,2.76118
16982,82.9277,25767.4,2.76059
16996,82.9961,25798.9,2.76502
17010,83.0645,25823.7,2.76748
17024,83.1328,25846.2,2.77008
17038,83.2012,25830.4,2.76942
17052,83.2695,25881.5,2.77424
17066,83.3379,25894,2.77662
17080,83.40625,25934.5,2.779916
17094,83.4746,25936.4,2.78132
17108,83.543,25971.7,2.78366
17122,83.6113,25959.8,2.78427
17136,83.6797,26001.7,2.788307
17150,83.748,26021.8,2.79121
17164,83.8164,26052.1,2.79176
17178,83.8848,26043.5,2.79356
17192,83.9531,26092.3,2.79836
17206,84.0215,26106.3,2.79972
17220,84.0898,26119.7,2.8011
17234,84.1582,26142.9,2.80274
17248,84.2266,26176.4,2.80629
17262,84.2949,26186,2.80813
17276,84.3633,26197.2,2.81046
17290,84.4316,26234.9,2.81341
17304,84.5,26243.4,2.814749
17318,84.5684,26266.7,2.81787
17332,84.6367,26299,2.8193
17346,84.7051,26319.3,2.822886
17360,84.7734,26308.2,2.82229
17374,84.8418,25446.9,2.832659
17388,84.9102,25515.4,2.8294
17402,84.9785,25537.7,2.83251
17416,85.0469,25564.8,2.83414
17430,85.1152,25586.7,2.83697
17444,85.1836,25578.6,2.83779
17458,85.252,25635.9,2.84233
17472,85.3203,25640.6,2.84426
17486,85.3887,25671.3,2.84684
17500,85.457,25685.9,2.84757
17514,85.5254,25714,2.8507
17528,85.59375,25692,2.85171
17542,85.6621,25753.9,2.85374
17556,85.7305,25761,2.85692
17570,85.7988,25791.4,2.85899
17584,85.8672,25799.2,2.86075
17598,85.9355,25837,2.86316
17612,86.0039,25844.7,2.86552
17626,86.0723,25881.3,2.86748
17640,86.1406,25902.7,2.87123
17654,86.209,25923.2,2.87315
17668,86.2773,25931.9,2.8746
17682,86.3457,25973.8,2.87787
17696,86.4141,25986.2,2.88055
17710,86.4824,26003,2.8817
17724,86.5508,26014.3,2.88568
17738,86.6191,26043.9,2.88503
17752,86.6875,26056.7,2.88812
17766,86.7559,26087.3,2.889555
17780,86.8242,26108.6,2.89398
17794,86.8926,26110.3,2.8935
17808,86.9609,26149.1,2.89932
17822,87.0293,26171.5,2.90125
17836,87.0977,26185.6,2.90247
17850,87.166,26203.1,2.90287
17864,87.2344,26234.5,2.90719
17878,87.3027,26237.2,2.90761
17892,87.3711,26263.6,2.9115
17906,87.4395,26290.9,2.91241
17920,87.5078,26301,2.9159
17934,87.5762,26313.4,2.9193
17948,87.6445,26358.4,2.92222
17962,87.7129,26349,2.92127
17976,87.78125,26376.4,2.92492
17990,87.8496,26413.9,2.9269
18004,87.918,26440.3,2.9297
18018,87.9863,26437.3,2.93198
18032,88.0547,26461.9,2.93507
18046,88.123,26494.1,2.93618
18060,88.1914,26501.2,2.93848
18074,88.2598,26529,2.9419
18088,88.3281,26551.7,2.94238
18102,88.3965,26567.1,2.94447
18116,88.4648,26583.1,2.94719
18130,88.5332,26619.1,2.95087
18144,88.6016,26635.1,2.95153
18158,88.6699,26645.1,2.95393
18172,88.7383,26674.9,2.95641
18186,88.8066,26684.6,2.95834
18200,88.875,26709.5,2.96021
18214,88.9434,26744.2,2.96468
18228,89.0117,26743.6,2.96491
18242,89.0801,26775.3,2.96908
18256,89.1484,26786.6,2.969306
18270,89.2168,26820.9,2.97346
18284,89.2852,26825.3,2.97339
18298,89.3535,26861.9,2.97778
18312,89.4219,26867.3,2.977695
18326,89.4902,26895.1,2.9813
18340,89.5586,26888.6,2.9836
18354,89.627,26939.1,2.98612
18368,89.6953,26932.7,2.98694
18382,89.7637,26978.8,2.99046
18396,89.832,26988.6,2.991883
18410,89.9004,27004.7,2.99409
18424,89.96875,27028.4,2.9981
18438,90.0371,27064.8,3.00145
18452,90.1055,27064.1,3.001354
18466,90.1738,27094.5,3.00596
18480,90.2422,27110.4,3.00744
18494,90.3105,27135.3,3.009109
18508,90.3789,27140.4,3.01153
18522,90.4473,27179.4,3.01508
18536,90.5156,27185.5,3.01611
18550,90.584,27201.4,3.01719
18564,90.6523,27236.7,3.02057
18578,90.7207,27235.1,3.02165
18592,90.7891,27262.5,3.02464
18606,90.8574,27279.7,3.02648
18620,90.9258,27312.9,3.02944
18634,90.9941,27311,3.03077
18648,91.0625,27355,3.0347
18662,91.1309,27363.1,3.03493
18676,91.1992,27400.2,3.03845
18690,91.2676,27405.6,3.0399
18704,91.3359,27431.5,3.04339
18718,91.4043,27440.5,3.04443
18732,91.4727,27480.1,3.0477
18746,91.541,27486.9,3.05013
18760,91.6094,27515.5,3.05229
18774,91.6777,27492.6,3.05478
18788,91.7461,27557.9,3.05698
18802,91.8145,27569.8,3.05748
18816,91.8828,27597.3,3.06079
18830,91.9512,27600.9,3.06446
18844,92.0195,27637.2,3.06489
18858,92.0879,27625.5,3.06718
18872,92.15625,27672.5,3.07078
18886,92.2246,27694.5,3.07309
18900,92.293,27708.2,3.0748
18914,92.3613,27734.8,3.07772
18928,92.4297,27751.6,3.08001
18942,92.498,27769.3,3.082927
18956,92.5664,27795.8,3.0835
18970,92.6348,27821.6,3.08614
18984,92.7031,27824.9,3.08705
18998,92.7715,27853.8,3.09061
19012,92.8398,27875.4,3.09295
19026,92.9082,27887.8,3.09485
19040,92.9766,27893.4,3.09643
19054,93.0449,27936.3,3.09956
19068,93.1133,27934.8,3.10063
19082,93.1816,27973.3,3.1043
19096,93.25,27986.4,3.10532
19110,93.3184,28030.5,3.10978
19124,93.3867,28009.7,3.10985
19138,93.4551,28063,3.11542
19152,93.5234,28064.2,3.115885
19166,93.5918,28088.9,3.1173
19180,93.6602,28115.6,3.12055
19194,93.7285,28143,3.12337
19208,93.7969,28142.9,3.12418
19222,93.8652,28183.1,3.12827
19236,93.9336,28195.1,3.13038
19250,94.002,28213.7,3.13118
19264,94.0703,28227.1,3.13463
19278,94.1387,28252.2,3.13543
19292,94.207,28127.4,3.13985
19306,94.2754,28143.9,3.14124
19320,94.34375,28178.2,3.14433
19334,94.4121,28197.5,3.14645
19348,94.4805,28202.3,3.14763
19362,94.5488,28226.7,3.15
19376,94.6172,28249.6,3.15305
19390,94.6855,28262.6,3.1535
19404,94.7539,28291.6,3.15833
19418,94.8223,28308.2,3.15839
19432,94.8906,28317.1,3.16113
19446,94.959,28340.1,3.163084
19460,95.0273,28374.6,3.16592
19474,95.0957,28373.6,3.16764
19488,95.1641,28411.5,3.17134
19502,95.2324,28429.4,3.172107
19516,95.3008,28453.7,3.17536
19530,95.3691,28460.2,3.17704
19544,95.4375,28492,3.18072
19558,95.5059,28494.4,3.18258
19572,95.5742,28529.3,3.18632
19586,95.6426,28550.5,3.18599
19600,95.7109,28571.6,3.18899
19614,95.7793,28565.6,3.19084
19628,95.8477,28610.9,3.19439
19642,95.916,28620.9,3.19714
19656,95.9844,28620.5,3.19861
19670,96.0527,28666,3.20095
19684,96.1211,28669.1,3.20246
19698,96.1895,28671.1,3.20537
19712,96.2578,28702.1,3.20781
19726,96.3262,28719.8,3.21023
19740,96.3945,28724.5,3.21239
19754,96.4629,28752.9,3.21417
19756,96.4727,168.945,3.29274