File: ASM109_2021_data/MTS/UD/MTS_UD_8.csv
,Time [s],Load [N],Displacement [mm]
0,0.00683594,-144.563,0.00176524
12,0.0654297,-111.408,0.00307584
24,0.124023,-86.8191,0.004045391
36,0.182617,-63.99,0.00442547
48,0.241211,-38.7494,0.00866463
60,0.299805,-27.1629,0.00888014
72,0.358398,-5.14427,0.0111793
84,0.416992,18.5998,0.0130357
96,0.475586,35.369,0.0158936
108,0.53418,63.1783,0.0190973
120,0.592773,52.8736,0.0184524
132,0.651367,97.6794,0.0204586
144,0.709961,116.848,0.0232026
156,0.768555,144.263,0.0248155
168,0.827148,178.231,0.0282706
180,0.885742,158.096,0.0276623
192,0.944336,203.947,0.0317019
204,1.00293,231.15,0.0330972
216,1.06152,247.338,0.0351297
228,1.12012,267.262,0.0375372
240,1.17871,282.207,0.0365732
252,1.2373,327.924,0.0416543
264,1.2959,305.336,0.04209511
276,1.35449,350.528,0.0450523
288,1.41309,378.608,0.0465637
300,1.47168,393.698,0.0488832
312,1.53027,419.262,0.04990853
324,1.58887,428.913,0.0520294
336,1.64746,466.028,0.0552048
348,1.70605,474.16,0.0559511
360,1.76465,495.886,0.0585329
372,1.82324,529.529,0.0602878
384,1.88184,523.206,0.0616561
396,1.94043,567.063,0.0647916
408,1.99902,578.586,0.06656272
420,2.05762,605.621,0.06683521
432,2.11621,626.045,0.0692307
444,2.1748,627.904,0.07144215
456,2.2334,676.133,0.07426811
468,2.29199,664.68,0.0747341
480,2.35059,717.1,0.076591
492,2.40918,710.774,0.0794492
504,2.46777,742.393,0.0806258
516,2.52637,773.403,0.0838046
528,2.58496,776.539,0.083871
540,2.64355,825.994,0.0879785
552,2.70215,819.682,0.0874441
564,2.76074,847.121,0.0921073
576,2.81934,875.429,0.0943387
588,2.87793,894.573,0.093826
600,2.93652,920.711,0.09691713
612,2.99512,934.145,0.0996249
624,3.05371,953.286,0.101879
636,3.1123,977.163,0.104387
648,3.1709,985.096,0.104367
660,3.22949,1034.44,0.109262
672,3.28809,1002.15,0.108222
684,3.34668,1065.55,0.110175
696,3.40527,1081.03,0.113642
708,3.46387,1111.09,0.113612
720,3.52246,1123.47,0.115916
732,3.58105,1126.77,0.11696
744,3.63965,1177.29,0.120179
756,3.69824,1183.19,0.120818
768,3.75684,1194.13,0.122637
780,3.81543,1232.7,0.125992
792,3.87402,1225.45,0.127088
804,3.93262,1270.74,0.130544
816,3.99121,1283.48,0.130445
828,4.0498,1316.71,0.134615
840,4.1084,1339.24,0.136187
852,4.16699,1351.47,0.137648
864,4.22559,1376.49,0.139978
876,4.28418,1376.46,0.140331
888,4.34277,1428.6,0.143871
900,4.40137,1439.94,0.145833
912,4.45996,1450.42,0.146981
924,4.51855,1492.18,0.150782
936,4.57715,1479.61,0.149316
948,4.63574,1535.85,0.1548081
960,4.69434,1522.23,0.154855
972,4.75293,1564.49,0.158333
984,4.81152,1572.84,0.160211
996,4.87012,1610.58,0.160282
1008,4.92871,1630.75,0.163945
1020,4.9873,1639.43,0.164593
1032,5.0459,1675.79,0.168705
1044,5.10449,1696.55,0.168408
1056,5.16309,1711.32,0.170355
1068,5.22168,1744.46,0.172775
1080,5.28027,1724.02,0.173123
1092,5.33887,1789.4,0.17825
1104,5.39746,1783.52,0.177367
1116,5.45605,1822.35,0.180107
1128,5.51465,1838.76,0.182579
1140,5.57324,1844.73,0.183098
1152,5.63184,1892.17,0.186936
1164,5.69043,1883.43,0.187626
1176,5.74902,1925.43,0.191498
1188,5.80762,1941.65,0.192142
1200,5.86621,1969.71,0.1939106
1212,5.9248,1996.6,0.197326
1224,5.9834,1983.93,0.196958
1236,6.04199,2033.26,0.20046
1248,6.10059,2043,0.201234
1260,6.15918,2057.82,0.204084
1272,6.21777,2104.5,0.207061
1284,6.27637,2099.01,0.205637
1296,6.33496,2148.22,0.210645
1308,6.39355,2139.46,0.211887
1320,6.45215,2178.1,0.212296
1332,6.51074,2209.63,0.215837
1344,6.56934,2204.2,0.21678
1356,6.62793,2242.31,0.219657
1368,6.68652,2256.64,0.220967
1380,6.74512,2287.64,0.224747
1392,6.80371,2300.41,0.225568
1404,6.8623,2317.92,0.226008
1416,6.9209,2347.09,0.229708
1428,6.97949,2327.32,0.229106
1440,7.03809,2381.94,0.233078
1452,7.09668,2398.35,0.235293
1464,7.15527,2416.72,0.23749
1476,7.21387,2438.51,0.239242
1488,7.27246,2455.15,0.240384
1500,7.33105,2498.78,0.243627
1512,7.38965,2497.96,0.245152
1524,7.44824,2528.36,0.247414
1536,7.50684,2535.71,0.249468
1548,7.56543,2571.14,0.249477
1560,7.62402,2601.67,0.252983
1572,7.68262,2581.88,0.2539323
1584,7.74121,2629.47,0.25637
1596,7.7998,2641.03,0.258381
1608,7.8584,2671.57,0.258871
1620,7.91699,2694.84,0.261681
1632,7.97559,2698.57,0.262787
1644,8.03418,2733.32,0.266427
1656,8.09277,2732.86,0.268021
1668,8.15137,2782.16,0.270784
1680,8.20996,2794.55,0.27192
1692,8.26855,2799.87,0.272873
1704,8.32715,2855.15,0.275907
1716,8.38574,2823.55,0.27666
1728,8.44434,2886.77,0.280556
1740,8.50293,2895.78,0.281815
1752,8.56152,2921.14,0.284055
1764,8.62012,2949.51,0.285345
1776,8.67871,2941.53,0.287467
1788,8.7373,2978.91,0.29128
1800,8.7959,2990.8,0.290396
1812,8.85449,3020.64,0.293617
1824,8.91309,3025.27,0.29509
1836,8.97168,3050.4,0.295906
1848,9.03027,3080.46,0.299246
1860,9.08887,3093.82,0.299338
1872,9.14746,3120.47,0.3027384
1884,9.20605,3127.8,0.304234
1896,9.26465,3165.76,0.307604
1908,9.32324,3189.07,0.310072
1920,9.38184,3195.91,0.30902
1932,9.44043,3233.11,0.31401
1944,9.49902,3243.34,0.315282
1956,9.55762,3275.93,0.318372
1968,9.61621,3286.95,0.319328
1980,9.6748,3295.56,0.32079
1992,9.7334,3338.09,0.323283
2004,9.79199,3337.91,0.324926
2016,9.85059,3371.48,0.326222
2028,9.90918,3388.67,0.327826
2040,9.96777,3412.04,0.329859
2052,10.0264,3438.75,0.333675
2064,10.085,3440.93,0.3348434
2076,10.1436,3481,0.337552
2088,10.2021,3487.22,0.33809
2100,10.2607,3517.45,0.340886
2112,10.3193,3538.82,0.342086
2124,10.3779,3533.52,0.34406
2136,10.4365,3581.1,0.347855
2148,10.4951,3590.15,0.3479363
2160,10.5537,3621.49,0.349735
2172,10.6123,3626.42,0.352506
2184,10.6709,3661.7,0.354035
2196,10.7295,3682.12,0.35546
2208,10.7881,3681.43,0.357151
2220,10.8467,3730.58,0.360875
2232,10.9053,3739.39,0.362004
2244,10.9639,3772.49,0.3653405
2256,11.0225,3800.16,0.3672
2268,11.0811,3790.58,0.367342
2280,11.1396,3843.97,0.372025
2292,11.1982,3836.35,0.372133
2304,11.2568,3870.79,0.374935
2316,11.3154,3888.25,0.375908
2328,11.374,3902.95,0.37758
2340,11.4326,3945.42,0.381709
2352,11.4912,3913.8,0.381663
2364,11.5498,3961.8,0.383804
2376,11.6084,3965.42,0.385643
2388,11.667,4005.5,0.386553
2400,11.7256,4031.05,0.388583
2412,11.7842,4013.67,0.390266
2424,11.8428,4076.25,0.393464
2436,11.9014,4061.31,0.395367
2448,11.96,4114.8,0.397476
2460,12.0186,4125.94,0.39913
2472,12.0771,4152.58,0.400501
2484,12.1357,4184.9,0.405712
2496,12.1943,4159.68,0.404989
2508,12.2529,4211.77,0.40804
2520,12.3115,4235.18,0.408866
2532,12.3701,4256.98,0.411192
2544,12.4287,4290.14,0.414083
2556,12.4873,4280.43,0.413692
2568,12.5459,4324.23,0.41815
2580,12.6045,4337.57,0.417645
2592,12.6631,4359.05,0.420677
2604,12.7217,4387.35,0.423149
2616,12.7803,4367.77,0.4242501
2628,12.8389,4426.13,0.42628
2640,12.8975,4420.47,0.427591
2652,12.9561,4462.66,0.429821
2664,13.0146,4489.69,0.433493
2676,13.0732,4483.5,0.432401
2688,13.1318,4536.67,0.436418
2700,13.19043,4520.3,0.436618
2712,13.249,4560.21,0.44003
2724,13.3076,4575.97,0.441773
2736,13.3662,4599.89,0.444151
2748,13.4248,4628.1,0.4475759
2760,13.4834,4633.4,0.448384
2772,13.542,4678.99,0.451564
2784,13.6006,4661.64,0.451836
2796,13.65918,4704.59,0.454384
2808,13.7178,4729.29,0.456787
2820,13.7764,4729.04,0.457678
2832,13.835,4771.72,0.461543
2844,13.8936,4766.65,0.461515
2856,13.9521,4807.38,0.463538
2868,14.0107,4819.37,0.465783
2880,14.0693,4845.01,0.467169
2892,14.12793,4886.73,0.470236
2904,14.1865,4854.31,0.471334
2916,14.2451,4911.34,0.473369
2928,14.3037,4906.72,0.474186
2940,14.3623,4943.3,0.4779503
2952,14.4209,4969.07,0.479042
2964,14.4795,4958.75,0.481262
2976,14.5381,5020.02,0.483943
2988,14.59668,5023.79,0.484013
3000,14.6553,5051.09,0.486875
3012,14.7139,5067.1,0.489144
3024,14.7725,5083.26,0.491636
3036,14.8311,5124.74,0.494233
3048,14.8896,5128.38,0.495208
3060,14.9482,5162.1,0.4968825
3072,15.0068,5156.2,0.49754
3084,15.06543,5198.61,0.500181
3096,15.124,5217.06,0.502827
3108,15.1826,5220.41,0.505209
3120,15.2412,5252.32,0.506315
3132,15.2998,5259.38,0.509027
3144,15.3584,5285.96,0.510708
3156,15.417,5319.61,0.514134
3168,15.4756,5322.6,0.515426
3180,15.53418,5354.32,0.516525
3192,15.5928,5353.8,0.518107
3204,15.6514,5401.28,0.521399
3216,15.71,5399.68,0.522443
3228,15.7686,5422.69,0.523733
3240,15.8271,5458.77,0.527639
3252,15.8857,5444.31,0.527475
3264,15.9443,5499.46,0.53184
3276,16.00293,5502.37,0.5318073
3288,16.0615,5529.88,0.53379
3300,16.1201,5556.32,0.536983
3312,16.1787,5564.62,0.536565
3324,16.2373,5603.24,0.541058
3336,16.2959,5595.82,0.541731
3348,16.3545,5629.92,0.544491
3360,16.4131,5647.76,0.546282
3372,16.47168,5673.51,0.547545
3384,16.5303,5700.71,0.550785
3396,16.5889,5685.64,0.551021
3408,16.6475,5747.79,0.555537
3420,16.7061,5758.32,0.555636
3432,16.7646,5771.45,0.557597
3444,16.8232,5810.45,0.55992
3456,16.8818,5801.59,0.559827
3468,16.94043,5841.13,0.562213
3480,16.999,5833.98,0.564404
3492,17.0576,5867.66,0.567024
3504,17.1162,5894.14,0.568296
3516,17.1748,5897.31,0.570129
3528,17.2334,5943.78,0.57419
3540,17.292,5938.66,0.575631
3552,17.3506,5981.26,0.577307
3564,17.40918,5988.38,0.5787
3576,17.4678,6020.48,0.580645
3588,17.5264,6036.35,0.58315
3600,17.585,6043.36,0.583675
3612,17.6436,6080.74,0.586989
3624,17.7021,6089.71,0.588557
3636,17.7607,6119.66,0.59094
3648,17.8193,6146.66,0.593281
3660,17.87793,6136.73,0.594054
3672,17.9365,6188.31,0.597991
3684,17.9951,6182.06,0.597688
3696,18.0537,6213.55,0.600232
3708,18.1123,6221.58,0.602314
3720,18.1709,6260.82,0.604602
3732,18.2295,6290.05,0.607608
3744,18.2881,6291.5,0.6073795
3756,18.34668,6325.47,0.610515
3768,18.4053,6332.3,0.612099
3780,18.4639,6363.86,0.613391
3792,18.5225,6390.11,0.615798
3804,18.5811,6385.41,0.617126
3816,18.6396,6422.91,0.620036
3828,18.6982,6437.65,0.622122
3840,18.7568,6461.64,0.623289
3852,18.81543,6483.85,0.625141
3864,18.874,6478.74,0.626728
3876,18.9326,6524,0.629134
3888,18.9912,6508.71,0.630251
3900,19.0498,6566.66,0.634265
3912,19.1084,6580.29,0.635139
3924,19.167,6597.21,0.636544
3936,19.2256,6627,0.639676
3948,19.28418,6619.41,0.641021
3960,19.3428,6662.02,0.643834
3972,19.4014,6654.77,0.6456632
3984,19.46,6700.31,0.647052
3996,19.5186,6724.22,0.649595
4008,19.5771,6712.88,0.64945
4020,19.6357,6779.09,0.65406
4032,19.6943,6755.18,0.654965
4044,19.75293,6806.9,0.657455
4056,19.8115,6824.1,0.658033
4068,19.8701,6840.46,0.660596
4080,19.9287,6863.58,0.6636948
4092,19.9873,6868.31,0.663599
4104,20.0459,6894.45,0.665654
4116,20.1045,6933.09,0.669947
4128,20.1631,6937.7,0.669496
4140,20.22168,6966.25,0.672434
4152,20.2803,6958.87,0.673112
4164,20.3389,7006.65,0.67665
4176,20.3975,7004.7,0.6777097
4188,20.4561,7032.34,0.6816929
4200,20.5146,7062.51,0.68377
4212,20.5732,7060,0.682806
4224,20.6318,7115.42,0.686916
4236,20.69043,7099.73,0.687809
4248,20.749,7144.39,0.690867
4260,20.8076,7157.77,0.691941
4272,20.8662,7181.62,0.693239
4284,20.9248,7216.51,0.6980868
4296,20.9834,7196.84,0.6969589
4308,21.042,7247.03,0.700088
4320,21.1006,7250.76,0.701438
4332,21.15918,7273.66,0.703
4344,21.2178,7308.73,0.706348
4356,21.2764,7303.01,0.707383
4368,21.335,7350.56,0.71002
4380,21.3936,7351.43,0.711859
4392,21.4521,7375.37,0.714208
4404,21.5107,7396.2,0.716536
4416,21.5693,7420.7,0.718004
4428,21.62793,7445.99,0.720225
4440,21.6865,7454.02,0.72108
4452,21.7451,7489.41,0.723789
4464,21.8037,7490.48,0.72531
4476,21.8623,7516.07,0.727013
4488,21.9209,7540.85,0.730159
4500,21.9795,7535.99,0.729205
4512,22.0381,7578.83,0.732369
4524,22.09668,7582.6,0.734665
4536,22.1553,7629.7,0.737172
4548,22.2139,7642.08,0.739876
4560,22.2725,7644.84,0.740994
4572,22.3311,7682.44,0.742391
4584,22.3896,7693.76,0.744938
4596,22.4482,7716.93,0.747026
4608,22.5068,7733.94,0.747705
4620,22.56543,7750.19,0.751189
4632,22.624,7779.03,0.753634
4644,22.6826,7785.32,0.754575
4656,22.7412,7827,0.756716
4668,22.7998,7829.23,0.758237
4680,22.8584,7854.52,0.760579
4692,22.917,7875.27,0.76236
4704,22.9756,7894.3,0.764052
4716,23.03418,7919.99,0.767185
4728,23.0928,7920.15,0.767101
4740,23.1514,7956.38,0.769181
4752,23.21,7988.77,0.77335
4764,23.2686,7990.09,0.773651
4776,23.3271,8038.68,0.778358
4788,23.3857,8026.05,0.778718
4800,23.4443,8067.08,0.781102
4812,23.50293,8073.92,0.782017
4824,23.5615,8102.9,0.783111
4836,23.6201,8128.65,0.7867
4848,23.6787,8117.13,0.787332
4860,23.7373,8160.94,0.7909
4872,23.7959,8171.24,0.792241
4884,23.8545,8213.71,0.794317
4896,23.9131,8224.79,0.797646
4908,23.97168,8226.61,0.797017
4920,24.0303,8264.79,0.801147
4932,24.0889,8283.3,0.80309
4944,24.1475,8299.22,0.803521
4956,24.2061,8327.02,0.806718
4968,24.2646,8340.23,0.807383
4980,24.3232,8372.71,0.810122
4992,24.3818,8358.98,0.811042
5004,24.44043,8408.41,0.813635
5016,24.499,8400.29,0.81553
5028,24.5576,8439,0.81737
5040,24.6162,8461.71,0.821294
5052,24.6748,8469.23,0.8212471
5064,24.7334,8499.21,0.824254
5076,24.792,8504.89,0.824627
5088,24.8506,8536.87,0.827281
5100,24.90918,8562.42,0.829712
5112,24.9678,8572.62,0.830989
5124,25.0264,8602.63,0.83289
5136,25.085,8605.79,0.833483
5148,25.1436,8636.23,0.836746
5160,25.2021,8653.37,0.840109
5172,25.2607,8672.78,0.839769
5184,25.3193,8697.59,0.844294
5196,25.37793,8703.76,0.844647
5208,25.4365,8741.94,0.847913
5220,25.4951,8744.35,0.847381
5232,25.5537,8780.04,0.850134
5244,25.6123,8803.99,0.853023
5256,25.6709,8802.54,0.855373
5268,25.7295,8833.37,0.857079
5280,25.7881,8839.75,0.858399
5292,25.84668,8873.9,0.860004
5304,25.9053,8893.74,0.862991
5316,25.9639,8916.57,0.86463
5328,26.0225,8945.45,0.867851
5340,26.0811,8944.65,0.867556
5352,26.1396,8993.58,0.872022
5364,26.1982,8990.51,0.872158
5376,26.2568,9026.18,0.874768
5388,26.31543,9032.88,0.877358
5400,26.374,9044.69,0.877874
5412,26.4326,9072.54,0.880568
5424,26.4912,9080.29,0.882334
5436,26.5498,9121.98,0.88549
5448,26.6084,9135.1,0.88642
5460,26.667,9135.03,0.887381
5472,26.7256,9180.87,0.88929
5484,26.78418,9169.3,0.889764
5496,26.8428,9218.01,0.893834
5508,26.9014,9221.93,0.897283
5520,26.96,9249.46,0.897154
5532,27.0186,9266.09,0.899554
5544,27.0771,9269.41,0.901237
5556,27.1357,9308.93,0.90261
5568,27.1943,9318.77,0.9056266
5580,27.25293,9347.77,0.9080686
5592,27.3115,9375.26,0.909772
5604,27.3701,9374.86,0.909786
5616,27.4287,9424.08,0.914323
5628,27.4873,9412.34,0.915232
5640,27.5459,9454.97,0.915625
5652,27.6045,9475.08,0.919841
5664,27.6631,9484.04,0.920852
5676,27.72168,9520.09,0.923625
5688,27.7803,9521.44,0.923958
5700,27.8389,9549.72,0.924991
5712,27.8975,9568.12,0.928251
5724,27.9561,9589.9,0.931882
5736,28.0146,9614.92,0.933391
5748,28.0732,9605.82,0.934183
5760,28.1318,9650.16,0.93684
5772,28.19043,9646.76,0.937242
5784,28.249,9686.6,0.940207
5796,28.3076,9700.93,0.941845
5808,28.3662,9696.89,0.941641
5820,28.4248,9741.99,0.946928
5832,28.4834,9755.79,0.947503
5844,28.542,9786.59,0.950943
5856,28.6006,9802.52,0.951577
5868,28.65918,9812.25,0.954663
5880,28.7178,9840.84,0.955225
5892,28.7764,9834.88,0.957389
5904,28.835,9882.71,0.961254
5916,28.8936,9893.36,0.961607
5928,28.9521,9915.63,0.963547
5940,29.0107,9944.96,0.965828
5952,29.0693,9957.08,0.967314
5964,29.12793,9984.28,0.970398
5976,29.1865,9989.77,0.970569
5988,29.2451,10016.3,0.973807
6000,29.3037,10034,0.976709
6012,29.3623,10060.4,0.9768725
6024,29.4209,10087.7,0.978983
6036,29.4795,10078,0.979782
6048,29.5381,10109.7,0.981306
6060,29.59668,10131,0.983992
6072,29.6553,10155,0.986136
6084,29.7139,10180.7,0.989548
6096,29.7725,10185.6,0.989833
6108,29.8311,10220.4,0.992812
6120,29.8896,10226.1,0.994419
6132,29.9482,10256.1,0.996713
6144,30.0068,10265.3,0.999154
6156,30.06543,10294.9,1.00035
6168,30.124,10321.5,1.00335
6180,30.1826,10328.7,1.00371
6192,30.2412,10362.4,1.00785
6204,30.2998,10359.5,1.00619
6216,30.3584,10379.6,1.010694
6228,30.417,10424.2,1.01412
6240,30.4756,10403.6,1.01361
6252,30.53418,10450.8,1.016209
6264,30.5928,10456.8,1.01783
6276,30.6514,10498.3,1.02126
6288,30.71,10512.8,1.02126
6300,30.7686,10532.6,1.02275
6312,30.8271,10549.3,1.02675
6324,30.8857,10566.8,1.02853
6336,30.9443,10583.1,1.02894
6348,31.00293,10599.6,1.03028
6360,31.0615,10603.4,1.03292
6372,31.1201,10655.7,1.03546
6384,31.1787,10652.2,1.03636
6396,31.2373,10672.9,1.03992
6408,31.2959,10705.2,1.04189
6420,31.3545,10723.1,1.04366
6432,31.4131,10756,1.04592
6444,31.47168,10759.2,1.04495
6456,31.5303,10786.7,1.05088
6468,31.5889,10806.5,1.05222
6480,31.6475,10832.8,1.0542
6492,31.7061,10857.6,1.05574
6504,31.7646,10860.9,1.05749
6516,31.8232,10890.4,1.0591
6528,31.8818,10898,1.062
6540,31.94043,10932.9,1.06389
6552,31.999,10940.5,1.06536
6564,32.0576,10965.1,1.06448
6576,32.1162,10990,1.06893
6588,32.1748,10995.8,1.06885
6600,32.2334,11020,1.07387
6612,32.292,11028.8,1.07541
6624,32.3506,11055.9,1.07677
6636,32.40918,11083.5,1.0786
6648,32.4678,11079.8,1.07789
6660,32.5264,11121.7,1.08361
6672,32.585,11122.1,1.08393
6684,32.6436,11163.5,1.08666
6696,32.7021,11182.6,1.088587
6708,32.7607,11201.1,1.08995
6720,32.8193,11235.1,1.092402
6732,32.87793,11244.1,1.09413
6744,32.9365,11270,1.09706
6756,32.9951,11290.5,1.099537
6768,33.0537,11308.5,1.10146
6780,33.1123,11327.7,1.10366
6792,33.1709,11340.8,1.10475
6804,33.2295,11357,1.106221
6816,33.2881,11392.6,1.10924
6828,33.34668,11401.5,1.11042
6840,33.4053,11430.2,1.11322
6852,33.4639,11430.5,1.11126
6864,33.5225,11456.2,1.11643
6876,33.5811,11478.5,1.11821
6888,33.6396,11499.9,1.12023
6900,33.6982,11510.3,1.12264
6912,33.7568,11531.7,1.12241
6924,33.81543,11545.6,1.12553
6936,33.874,11569.1,1.1273
6948,33.9326,11583.7,1.12885
6960,33.9912,11603.8,1.13107
6972,34.0498,11628.1,1.13362
6984,34.1084,11656.5,1.13648
6996,34.167,11669.2,1.13771
7008,34.2256,11695.4,1.14055
7020,34.28418,11716.4,1.142
7032,34.3428,11728.9,1.14366
7044,34.4014,11759.8,1.14614
7056,34.46,11772.8,1.1472
7068,34.5186,11799.8,1.14976
7080,34.5771,11811.9,1.1527
7092,34.6357,11834.3,1.15442
7104,34.6943,11845.3,1.15591
7116,34.75293,11873.3,1.156855
7128,34.8115,11893.5,1.16047
7140,34.8701,11896,1.160501
7152,34.9287,11928.2,1.16293
7164,34.9873,11943.6,1.16549
7176,35.0459,11966,1.1668
7188,35.1045,11988,1.16953
7200,35.1631,11998.7,1.17095
7212,35.22168,12030,1.17348
7224,35.2803,12033.9,1.174041
7236,35.3389,12075.8,1.17633
7248,35.3975,12096,1.178539
7260,35.4561,12110.6,1.18022
7272,35.5146,12126.3,1.18135
7284,35.5732,12145.2,1.184391
7296,35.6318,12170,1.18683
7308,35.69043,12173,1.18948
7320,35.749,12218.4,1.19054
7332,35.8076,12234.5,1.1928
7344,35.8662,12233.3,1.194587
7356,35.9248,12268.3,1.19524
7368,35.9834,12274,1.19755
7380,36.042,12307.9,1.19965
7392,36.1006,12312.8,1.20242
7404,36.15918,12341.4,1.20314
7416,36.2178,12368.2,1.20557
7428,36.2764,12369.4,1.2075
7440,36.335,12394.9,1.20997
7452,36.3936,12413.1,1.21184
7464,36.4521,12420.9,1.21167
7476,36.5107,12453.1,1.2156
7488,36.5693,12471.8,1.21806
7500,36.62793,12498.8,1.21931
7512,36.6865,12513.2,1.22298
7524,36.7451,12541.7,1.22349
7536,36.8037,12558.1,1.22656
7548,36.8623,12570.3,1.22505
7560,36.9209,12600.7,1.22921
7572,36.9795,12614.8,1.23245
7584,37.0381,12637.6,1.23353
7596,37.09668,12652.8,1.235225
7608,37.1553,12673,1.23552
7620,37.2139,12705.9,1.23873
7632,37.2725,12713.7,1.2413
7644,37.3311,12732.7,1.24343
7656,37.3896,12749.8,1.24499
7668,37.4482,12775.8,1.24771
7680,37.5068,12797.9,1.24876
7692,37.56543,12823.6,1.25124
7704,37.624,12843.2,1.25337
7716,37.6826,12862.1,1.25638
7728,37.7412,12878.2,1.25728
7740,37.7998,12899,1.26111
7752,37.8584,12923.3,1.26134
7764,37.917,12948.2,1.26409
7776,37.9756,12952.5,1.26545
7788,38.03418,12975.6,1.26769
7800,38.0928,12997.2,1.26994
7812,38.1514,12997.1,1.26952
7824,38.21,13050.4,1.2744
7836,38.2686,13057.5,1.27443
7848,38.3271,13082.7,1.27755
7860,38.3857,13094.4,1.27889
7872,38.4443,13125.2,1.280713
7884,38.50293,13144.5,1.28477
7896,38.5615,13145.7,1.283564
7908,38.6201,13182.4,1.28825
7920,38.6787,13195.1,1.29031
7932,38.7373,13217.8,1.2917
7944,38.7959,13229.9,1.29408
7956,38.8545,13250.3,1.29412
7968,38.9131,13267.8,1.29698
7980,38.97168,13289.7,1.29837
7992,39.0303,13314.1,1.30137
8004,39.0889,13316.2,1.30283
8016,39.1475,13332.6,1.30227
8028,39.2061,13382.6,1.30733
8040,39.2646,13399.6,1.30772
8052,39.3232,13409.6,1.31064
8064,39.3818,13439.5,1.312577
8076,39.44043,13430.9,1.31407
8088,39.499,13458.3,1.31685
8100,39.5576,13479.7,1.31706
8112,39.6162,13499.1,1.31951
8124,39.6748,13514.4,1.32102
8136,39.7334,13542.2,1.32408
8148,39.792,13562.1,1.3272
8160,39.8506,13582.5,1.32855
8172,39.90918,13603.4,1.329723
8184,39.9678,13609.3,1.33006
8196,40.0264,13644.1,1.33331
8208,40.085,13642,1.33564
8220,40.1436,13671.3,1.33782
8232,40.2021,13705.7,1.33934
8244,40.2607,13718.8,1.33986
8256,40.3193,13743.1,1.34359
8268,40.37793,13759.5,1.34484
8280,40.4365,13781.1,1.346222
8292,40.4951,13799.5,1.34926
8304,40.5537,13793.2,1.34945
8316,40.6123,13834.6,1.35351
8328,40.6709,13846.4,1.35303
8340,40.7295,13865.5,1.35723
8352,40.7881,13886.4,1.35978
8364,40.84668,13903.4,1.35971
8376,40.9053,13936.6,1.36269
8388,40.9639,13933.9,1.364482
8400,41.0225,13973.7,1.36571
8412,41.0811,13997.2,1.36838
8424,41.1396,14003.5,1.370095
8436,41.1982,14037.8,1.37373
8448,41.2568,14032,1.37374
8460,41.31543,14067,1.37572
8472,41.374,14080.7,1.377865
8484,41.4326,14102,1.37908
8496,41.4912,14128.3,1.38155
8508,41.5498,14146.2,1.38368
8520,41.6084,14166.1,1.38555
8532,41.667,14184.5,1.388575
8544,41.7256,14209.7,1.38928
8556,41.78418,14228,1.3923
8568,41.8428,14227.7,1.39171
8580,41.9014,14267.9,1.39598
8592,41.96,14271.8,1.39807
8604,42.0186,14298.2,1.39886
8616,42.0771,14308.1,1.40227
8628,42.1357,14343.7,1.40347
8640,42.1943,14348.2,1.40515
8652,42.25293,14362.8,1.40724
8664,42.3115,14395.5,1.40998
8676,42.3701,14411.9,1.41037
8688,42.4287,14431.9,1.41329
8700,42.4873,14454.9,1.41613
8712,42.5459,14475.3,1.41723
8724,42.6045,14484.2,1.41965
8736,42.6631,14516.8,1.42102
8748,42.72168,14536.7,1.42309
8760,42.7803,14550.1,1.42487
8772,42.8389,14552.7,1.42688
8784,42.8975,14581.1,1.42902
8796,42.9561,14593.3,1.42959
8808,43.0146,14628.1,1.431883
8820,43.0732,14638.3,1.43285
8832,43.1318,14667.8,1.43553
8844,43.19043,14684,1.43927
8856,43.249,14690.5,1.43881
8868,43.3076,14726.2,1.44369
8880,43.3662,14745.4,1.44324
8892,43.4248,14761.4,1.4471
8904,43.4834,14776.2,1.44778
8916,43.542,14797.7,1.44892
8928,43.6006,14826.3,1.45194
8940,43.65918,14841.4,1.45369
8952,43.7178,14872.1,1.45554
8964,43.7764,14889.4,1.45744
8976,43.835,14893.5,1.45895
8988,43.8936,14928.9,1.46262
9000,43.9521,14933.7,1.46261
9012,44.0107,14963,1.465686
9024,44.0693,14977,1.46627
9036,44.12793,14995.2,1.46692
9048,44.1865,15030.6,1.471302
9060,44.2451,15009.6,1.47266
9072,44.3037,15061.2,1.47557
9084,44.3623,15070.7,1.47666
9096,44.4209,15099.1,1.48013
9108,44.4795,15119.9,1.48097
9120,44.5381,15123.7,1.48181
9132,44.59668,15156.3,1.48521
9144,44.6553,15162.5,1.48597
9156,44.7139,15188,1.48967
9168,44.7725,15213,1.49185
9180,44.8311,15233.3,1.49375
9192,44.8896,15250.1,1.49727
9204,44.9482,15252.6,1.49527
9216,45.0068,15288.8,1.49947
9228,45.06543,15283.2,1.50048
9240,45.124,15327.4,1.50242
9252,45.1826,15336.6,1.50582
9264,45.2412,15348.3,1.505495
9276,45.2998,15380.5,1.51117
9288,45.3584,15402,1.50955
9300,45.417,15424.9,1.51318
9312,45.4756,15436.7,1.51487
9324,45.53418,15466.5,1.51676
9336,45.5928,15486.5,1.5176
9348,45.6514,15488.5,1.51895
9360,45.71,15528.5,1.52204
9372,45.7686,15543.2,1.52494
9384,45.8271,15564.6,1.52619
9396,45.8857,15573.7,1.52863
9408,45.9443,15595.9,1.53025
9420,46.00293,15624.1,1.53237
9432,46.0615,15639.8,1.53339
9444,46.1201,15667.3,1.53587
9456,46.1787,15684,1.53877
9468,46.2373,15700.1,1.54082
9480,46.2959,15719.6,1.54152
9492,46.3545,15734.5,1.54423
9504,46.4131,15754.7,1.54452
9516,46.47168,15768.6,1.54771
9528,46.5303,15792.2,1.54876
9540,46.5889,15828.9,1.55132
9552,46.6475,15815.6,1.55304
9564,46.7061,15860.4,1.55658
9576,46.7646,15870.8,1.557718
9588,46.8232,15896.7,1.55964
9600,46.8818,15907.8,1.561635
9612,46.94043,15921.3,1.56189
9624,46.999,15958.7,1.56515
9636,47.0576,15955,1.5666
9648,47.1162,15999.9,1.56897
9660,47.1748,16014.1,1.57207
9672,47.2334,16036,1.57333
9684,47.292,16045.4,1.57475
9696,47.3506,16065.9,1.57649
9708,47.40918,16092.5,1.57966
9720,47.4678,16106.4,1.5807
9732,47.5264,16127,1.583046
9744,47.585,16143.5,1.58568
9756,47.6436,16163.2,1.58677
9768,47.7021,16189,1.58981
9780,47.7607,16202.5,1.58997
9792,47.8193,16213.8,1.59134
9804,47.87793,16242.5,1.59585
9816,47.9365,16259.1,1.59513
9828,47.9951,16285.7,1.59798
9840,48.0537,16270.9,1.60015
9852,48.1123,16324.6,1.60249
9864,48.1709,16334.4,1.60549
9876,48.2295,16361,1.60586
9888,48.2881,16384.2,1.6087
9900,48.34668,16370.1,1.609316
9912,48.4053,16417.1,1.61347
9924,48.4639,16436.8,1.61293
9936,48.5225,16462.2,1.61645
9948,48.5811,16474.5,1.61841
9960,48.6396,16484.5,1.62009
9972,48.6982,16511.7,1.62333
9984,48.7568,16528.7,1.62241
9996,48.81543,16555.3,1.62737
10008,48.874,16558.8,1.62636
10020,48.9326,16593.4,1.63041
10032,48.9912,16607.1,1.63242
10044,49.0498,16593.4,1.631951
10056,49.1084,16649.8,1.63476
10068,49.167,16657.9,1.63759
10080,49.2256,16691.3,1.63816
10092,49.28418,16707.8,1.641672
10104,49.3428,16716.9,1.64485
10116,49.4014,16755.7,1.64563
10128,49.46,16756,1.64642
10140,49.5186,16778,1.64944
10152,49.5771,16794.1,1.65206
10164,49.6357,16830.3,1.65382
10176,49.6943,16850.4,1.65476
10188,49.75293,16838.2,1.65734
10200,49.8115,16882.9,1.66096
10212,49.8701,16909.4,1.66135
10224,49.9287,16921.7,1.66366
10236,49.9873,16941.2,1.66564
10248,50.0459,16955.7,1.66621
10260,50.1045,16987,1.66968
10272,50.1631,16994.5,1.67034
10284,50.22168,17020.2,1.67339
10296,50.2803,17028.2,1.67502
10308,50.3389,17049.3,1.6748
10320,50.3975,17072.2,1.67968
10332,50.4561,17067.8,1.67917
10344,50.5146,17116.4,1.68352
10356,50.5732,17130.2,1.68607
10368,50.6318,17157.8,1.68615
10380,50.69043,17171.1,1.68817
10392,50.749,17159.5,1.68839
10404,50.8076,17222.8,1.69281
10416,50.8662,17231.2,1.69422
10428,50.9248,17243,1.69711
10440,50.9834,17267.5,1.69873
10452,51.042,17278.4,1.6983
10464,51.1006,17307.8,1.70239
10476,51.15918,17310.8,1.7036
10488,51.2178,17330.3,1.70577
10500,51.2764,17355.7,1.706565
10512,51.335,17377.2,1.71016
10524,51.3936,17401.7,1.71233
10536,51.4521,17407.5,1.713039
10548,51.5107,17445.2,1.71672
10560,51.5693,17452.2,1.71776
10572,51.62793,17460.9,1.71816
10584,51.6865,17500.8,1.722
10596,51.7451,17504.8,1.72219
10608,51.8037,17539.8,1.72618
10620,51.8623,17551.2,1.72748
10632,51.9209,17570.9,1.72851
10644,51.9795,17590.3,1.73063
10656,52.0381,17598.1,1.73259
10668,52.09668,17637.1,1.73635
10680,52.1553,17606.3,1.73731
10692,52.2139,17664.9,1.73879
10704,52.2725,17689.6,1.74061
10716,52.3311,17696.9,1.7426
10728,52.3896,17730.2,1.74566
10740,52.4482,17712.6,1.74559
10752,52.5068,17763.9,1.74892
10764,52.5654,17778.2,1.74897
10776,52.624,17811.3,1.75322
10788,52.6826,17824.1,1.75489
10800,52.7412,17814.6,1.75578
10812,52.7998,17868.1,1.75854
10824,52.8584,17850.2,1.75932
10836,52.917,17899.3,1.76228
10848,52.9756,17898.6,1.76495
10860,53.0342,17926.7,1.76511
10872,53.0928,17959.8,1.769088
10884,53.1514,17947.9,1.76937
10896,53.21,17991.7,1.77119
10908,53.2686,18005.5,1.77378
10920,53.3271,18033.5,1.77687
10932,53.3857,18056.4,1.77923
10944,53.4443,18060.4,1.7796
10956,53.5029,18100.2,1.78354
10968,53.5615,18101.4,1.78315
10980,53.6201,18134.7,1.78585
10992,53.6787,18155.3,1.78944
11004,53.7373,18163.1,1.78863
11016,53.7959,18201.2,1.79333
11028,53.8545,18190.2,1.79313
11040,53.9131,18238.2,1.79566
11052,53.9717,18239.1,1.79915
11064,54.0303,18259.2,1.80017
11076,54.0889,18282.6,1.80149
11088,54.1475,18288.2,1.80202
11100,54.2061,18315.5,1.80622
11112,54.2646,18323.8,1.80656
11124,54.3232,18365.8,1.80948
11136,54.3818,18381.7,1.810904
11148,54.4404,18383.9,1.8129
11160,54.499,18426.9,1.81591
11172,54.5576,18420.9,1.8152
11184,54.6162,18457.2,1.81837
11196,54.6748,18466.4,1.82029
11208,54.7334,18496.4,1.82493
11220,54.792,18521.5,1.82639
11232,54.8506,18530.5,1.8265
11244,54.9092,18562.5,1.82839
11256,54.9678,18559,1.83084
11268,55.0264,18593.2,1.83396
11280,55.085,18619,1.83744
11292,55.1436,18622.7,1.83619
11304,55.2021,18669.6,1.84025
11316,55.2607,18673.8,1.84128
11328,55.3193,18702.7,1.84454
11340,55.3779,18705.6,1.8453
11352,55.4365,18725.5,1.8466
11364,55.4951,18756.6,1.84975
11376,55.5537,18743.1,1.85022
11388,55.6123,18781.3,1.85225
11400,55.6709,18796.7,1.85419
11412,55.7295,18817.2,1.85587
11424,55.7881,18849.4,1.85732
11436,55.8467,18836.7,1.85946
11448,55.9053,18886.4,1.86192
11460,55.9639,18888,1.8639
11472,56.0225,18915.4,1.86577
11484,56.0811,18940.4,1.86698
11496,56.1396,18947.1,1.86832
11508,56.1982,18984.8,1.8736
11520,56.2568,18956.3,1.87272
11532,56.3154,19023.6,1.87571
11544,56.374,19023.1,1.87694
11556,56.4326,19053.2,1.8791
11568,56.4912,19085.3,1.88209
11580,56.5498,19063.7,1.88331
11592,56.6084,19118.7,1.88598
11604,56.667,19112.4,1.88722
11616,56.7256,19161.2,1.89005
11628,56.7842,19185.6,1.892205
11640,56.8428,19136.7,1.89316
11652,56.9014,19212,1.89618
11664,56.96,19203.9,1.89551
11676,57.0186,19239.1,1.90023
11688,57.0771,19259.5,1.90157
11700,57.1357,19274.8,1.902059
11712,57.1943,19307.7,1.90604
11724,57.2529,19302.6,1.90611
11736,57.3115,19339,1.90937
11748,57.3701,19344.3,1.9109
11760,57.4287,19376.1,1.91248
11772,57.4873,19403.6,1.91563
11784,57.5459,19388,1.91714
11796,57.6045,19444.9,1.91898
11808,57.6631,19448.3,1.92128
11820,57.7217,19468.2,1.92252
11832,57.7803,19496.7,1.92315
11844,57.8389,19497.9,1.92518
11856,57.8975,19547.3,1.92794
11868,57.9561,19527.7,1.92973
11880,58.0146,19576,1.93276
11892,58.0732,19577.9,1.93217
11904,58.1318,19606.9,1.93593
11916,58.1904,19622.5,1.93828
11928,58.249,19624.1,1.93863
11940,58.3076,19675.8,1.94387
11952,58.3662,19686.2,1.94332
11964,58.4248,19707.6,1.94571
11976,58.4834,19732.8,1.9493
11988,58.542,19735.3,1.94921
12000,58.6006,19769.5,1.95143
12012,58.6592,19766.2,1.95283
12024,58.7178,19804.7,1.95596
12036,58.7764,19821.1,1.95775
12048,58.835,19832,1.95779
12060,58.8936,19865.2,1.96178
12072,58.9521,19865.7,1.9636
12084,59.0107,19911.3,1.96526
12096,59.0693,19918.6,1.96722
12108,59.1279,19949.7,1.96916
12120,59.1865,19968.7,1.97155
12132,59.2451,19967.4,1.97371
12144,59.3037,20012.3,1.97634
12156,59.3623,19986.7,1.97592
12168,59.4209,20029.9,1.9801
12180,59.4795,20059.8,1.98125
12192,59.5381,20053.1,1.98212
12204,59.5967,20113.5,1.98605
12216,59.6553,20086.5,1.98638
12228,59.7139,20131.4,1.98955
12240,59.7725,20145.6,1.99057
12252,59.8311,20157.9,1.99269
12264,59.8896,20188.5,1.99473
12276,59.9482,20183.8,1.99617
12288,60.0068,20230.3,1.99911
12300,60.0654,20222,2.00106
12312,60.124,20274.2,2.00349
12324,60.1826,20288.6,2.00489
12336,60.2412,20295,2.00535
12348,60.2998,20342.7,2.00955
12360,60.3584,20314.1,2.00925
12372,60.417,20363.4,2.01318
12384,60.4756,20375.9,2.0141
12396,60.5342,20381.9,2.01608
12408,60.5928,20418.6,2.01949
12420,60.6514,20418.8,2.01928
12432,60.71,20457,2.02159
12444,60.7686,20474.5,2.02286
12456,60.8271,20487.4,2.02671
12468,60.8857,20524.3,2.02878
12480,60.9443,20512.4,2.0292
12492,61.0029,20553.4,2.03218
12504,61.0615,20553.3,2.03332
12516,61.1201,20593.5,2.03702
12528,61.1787,20601.8,2.03704
12540,61.2373,20613.9,2.03805
12552,61.2959,20657.1,2.04193
12564,61.3545,20636.5,2.0426
12576,61.4131,20695.4,2.04574
12588,61.4717,20705.8,2.04735
12600,61.5303,20721.3,2.05023
12612,61.5889,20752.2,2.05145
12624,61.6475,20751.3,2.05317
12636,61.7061,20780.5,2.05653
12648,61.7646,20790.9,2.05786
12660,61.8232,20823,2.06024
12672,61.8818,20846.8,2.06146
12684,61.9404,20835.4,2.061465
12696,61.999,20876.4,2.06587
12708,62.0576,20870.4,2.06613
12720,62.1162,20905.7,2.06869
12732,62.1748,20936.7,2.07083
12744,62.2334,20938.3,2.07096
12756,62.292,20983.2,2.0754
12768,62.3506,20966.1,2.076221
12780,62.4092,21013.3,2.08
12792,62.4678,21010.5,2.08103
12804,62.5264,21037.9,2.08326
12816,62.585,21072.1,2.08552
12828,62.6436,21022.8,2.08606
12840,62.7021,21104.2,2.08931
12852,62.7607,21113.9,2.09113
12864,62.8193,21132.3,2.09187
12876,62.8779,21149.9,2.09476
12888,62.9365,21164.8,2.094806
12900,62.9951,21217.1,2.09951
12912,63.0537,21185.2,2.09916
12924,63.1123,21232.1,2.101022
12936,63.1709,21244.4,2.103122
12948,63.2295,21267.8,2.10785
12960,63.2881,21294.4,2.10833
12972,63.3467,21279.2,2.11026
12984,63.4053,21328,2.11122
12996,63.4639,21328.8,2.11294
13008,63.5225,21364.3,2.11517
13020,63.5811,21379.6,2.11948
13032,63.6396,21390.9,2.11946
13044,63.6982,21440.4,2.12329
13056,63.7568,21431.8,2.122782
13068,63.8154,21465,2.12591
13080,63.874,21477.5,2.12865
13092,63.9326,21492.3,2.12993
13104,63.9912,21527.9,2.13285
13116,64.0498,21499.8,2.13269
13128,64.1084,21547.1,2.13516
13140,64.167,21563.1,2.13666
13152,64.2256,21592.5,2.13816
13164,64.28418,21620.3,2.14194
13176,64.3428,21606.8,2.14337
13188,64.4014,21652.6,2.14577
13200,64.46,21627.2,2.14805
13212,64.5186,21684.3,2.15023
13224,64.5771,21699,2.15186
13236,64.6357,21712.1,2.15205
13248,64.6943,21747,2.15569
13260,64.75293,21731.3,2.15686
13272,64.8115,21785.2,2.16017
13284,64.8701,21787.4,2.16038
13296,64.9287,21809.6,2.16232
13308,64.9873,21845.6,2.16573
13320,65.0459,21838.4,2.16592
13332,65.1045,21866,2.16817
13344,65.1631,21879,2.17039
13356,65.22168,21913.4,2.17356
13368,65.2803,21935.1,2.17615
13380,65.3389,21933.5,2.17626
13392,65.3975,21966.4,2.17835
13404,65.4561,21980.7,2.17988
13416,65.5146,22004,2.18334
13428,65.5732,22022.3,2.18502
13440,65.6318,22039.6,2.1848
13452,65.69043,22066.3,2.18896
13464,65.749,22061.2,2.18953
13476,65.8076,22100.5,2.19282
13488,65.8662,22117.9,2.19539
13500,65.9248,22132.1,2.19474
13512,65.9834,22151.7,2.20016
13524,66.042,22153.7,2.199415
13536,66.1006,22208.1,2.20443
13548,66.15918,22185.5,2.20569
13560,66.2178,22225.2,2.20737
13572,66.2764,22249.1,2.2081
13584,66.335,22247.6,2.21036
13596,66.3936,22296.5,2.21159
13608,66.4521,22271,2.21415
13620,66.5107,22310.8,2.216078
13632,66.5693,22347.6,2.21798
13644,66.62793,22356.6,2.21901
13656,66.6865,22378.7,2.2222
13668,66.7451,22385.5,2.223
13680,66.8037,22418.1,2.22665
13692,66.8623,22411.1,2.22837
13704,66.9209,22451.2,2.23037
13716,66.9795,22473,2.23288
13728,67.0381,22480.5,2.233119
13740,67.09668,22501.2,2.23636
13752,67.1553,22483.3,2.23685
13764,67.2139,22544.7,2.23962
13776,67.2725,22561.4,2.2398
13788,67.3311,22577.9,2.24372
13800,67.3896,22607.8,2.2451
13812,67.4482,22597.5,2.24614
13824,67.5068,22643.5,2.24988
13836,67.56543,22644.5,2.25101
13848,67.624,22676.6,2.25123
13860,67.6826,22703,2.25422
13872,67.7412,22684.7,2.25681
13884,67.7998,22740.2,2.25931
13896,67.8584,22732.2,2.26097
13908,67.917,22776.4,2.26248
13920,67.9756,22796,2.26525
13932,68.03418,22786.6,2.26643
13944,68.0928,22827.6,2.26905
13956,68.1514,22837.6,2.27006
13968,68.21,22863.6,2.27181
13980,68.2686,22884.8,2.27422
13992,68.3271,22876.6,2.27495
14004,68.3857,22928.3,2.2801
14016,68.4443,22902.1,2.27952
14028,68.50293,22958.2,2.28345
14040,68.5615,22951.5,2.28534
14052,68.6201,22990.3,2.28587
14064,68.6787,23001.9,2.28834
14076,68.7373,22997,2.28866
14088,68.7959,23059.1,2.29366
14100,68.8545,23053.9,2.29215
14112,68.9131,23084.1,2.29592
14124,68.97168,23110.5,2.2977
14136,69.0303,23108,2.2975
14148,69.0889,23140.3,2.30132
14160,69.1475,23139.4,2.30258
14172,69.2061,23175.7,2.30583
14184,69.2646,23171,2.30703
14196,69.3232,23207.8,2.30941
14208,69.3818,23229.6,2.31219
14220,69.44043,23239.5,2.31371
14232,69.499,23274.3,2.31602
14244,69.5576,23257,2.316916
14256,69.6162,23305.2,2.31927
14268,69.6748,23317.1,2.3203
14280,69.7334,23327.3,2.32164
14292,69.792,23370,2.324759
14304,69.8506,23355.2,2.326365
14316,69.90918,23397.4,2.32905
14328,69.9678,23406.7,2.32945
14340,70.0264,23413.1,2.33125
14352,70.085,23464.6,2.33572
14364,70.1436,23445.9,2.3363
14376,70.2021,23485.8,2.33945
14388,70.2607,23486.4,2.342082
14400,70.3193,23505.8,2.34284
14412,70.37793,23539.5,2.34581
14424,70.4365,23551.5,2.3462
14436,70.4951,23582.8,2.34967
14448,70.5537,23564.1,2.35054
14460,70.6123,23618.5,2.35212
14472,70.6709,23633.8,2.35395
14484,70.7295,23642.3,2.35516
14496,70.7881,23677.8,2.35824
14508,70.84668,23656.4,2.3589
14520,70.9053,23711.4,2.36396
14532,70.9639,23717.2,2.36432
14544,71.0225,23724.2,2.36561
14556,71.0811,23771.1,2.368
14568,71.1396,23761.3,2.36924
14580,71.1982,23792.2,2.37209
14592,71.2568,23767.3,2.37438
14604,71.31543,23835.2,2.37525
14616,71.374,23856.5,2.37852
14628,71.4326,23879.1,2.37828
14640,71.4912,23905.2,2.38336
14652,71.5498,23887.1,2.38384
14664,71.6084,23931.8,2.38578
14676,71.667,23940.1,2.38689
14688,71.7256,23965,2.38745
14700,71.78418,24000.1,2.39122
14712,71.8428,23953.9,2.39193
14724,71.9014,24022,2.39505
14736,71.96,24024.1,2.396
14748,72.0186,24060.1,2.39897
14760,72.0771,24085.4,2.4002
14772,72.1357,24072.2,2.40313
14784,72.1943,24131.5,2.40663
14796,72.25293,24129.8,2.40668
14808,72.3115,24168.2,2.4091
14820,72.3701,24177.8,2.41196
14832,72.4287,24195.2,2.4122
14844,72.4873,24216.9,2.41361
14856,72.5459,24208,2.41663
14868,72.6045,24254.2,2.41885
14880,72.6631,24241.4,2.420706
14892,72.72168,24280.5,2.42248
14904,72.7803,24302.4,2.42476
14916,72.8389,24315.5,2.42619
14928,72.8975,24343.7,2.42852
14940,72.9561,24344.3,2.43059
14952,73.0146,24367.3,2.43349
14964,73.0732,24391,2.43501
14976,73.1318,24407.9,2.43627
14988,73.19043,24438,2.43736
15000,73.249,24430,2.43897
15012,73.3076,24474.6,2.44247
15024,73.3662,24483.9,2.44407
15036,73.4248,24497.2,2.44557
15048,73.4834,24530.1,2.44813
15060,73.542,24522,2.44911
15072,73.6006,24541,2.45115
15084,73.65918,24579.9,2.45368
15096,73.7178,24602.3,2.45685
15108,73.7764,24617.9,2.45824
15120,73.835,24612.1,2.45871
15132,73.8936,24671.3,2.46117
15144,73.9521,24664.7,2.46245
15156,74.0107,24693.4,2.46407
15168,74.0693,24709.2,2.46814
15180,74.12793,24717.1,2.4688
15192,74.1865,24750.9,2.47102
15204,74.2451,24757.6,2.47248
15216,74.3037,24789.6,2.4753
15228,74.3623,24807.1,2.47709
15240,74.4209,24818.5,2.47915
15252,74.4795,24850.4,2.48196
15264,74.5381,24846.2,2.48243
15276,74.59668,24883.8,2.48501
15288,74.6553,24875.7,2.48689
15300,74.7139,24914.2,2.48841
15312,74.7725,24928.5,2.49016
15324,74.8311,24947.7,2.49219
15336,74.8896,24972,2.49358
15348,74.9482,24978.3,2.496
15360,75.0068,24995.3,2.49936
15372,75.06543,25014.6,2.50025
15384,75.124,25040.3,2.50079
15396,75.1826,25063.7,2.50419
15408,75.2412,25064,2.50601
15420,75.2998,25094.5,2.50754
15432,75.3584,25109.4,2.50901
15444,75.417,25140.1,2.51271
15456,75.4756,25155.9,2.51559
15468,75.53418,25170,2.51691
15480,75.5928,25200.1,2.51815
15492,75.6514,25189,2.520371
15504,75.71,25232,2.52265
15516,75.7686,25249.3,2.523968
15528,75.8271,25268.9,2.52665
15540,75.8857,25281.7,2.52742
15552,75.9443,25300.9,2.52844
15564,76.00293,25314.9,2.53161
15576,76.0615,25331.1,2.53429
15588,76.1201,25357.2,2.53525
15600,76.1787,25381.6,2.53711
15612,76.2373,25369,2.53706
15624,76.2959,25423.4,2.54218
15636,76.3545,25409.2,2.54178
15648,76.4131,25448.9,2.54549
15660,76.47168,25472.4,2.54862
15672,76.5303,25476,2.54793
15684,76.5889,25495.6,2.55183
15696,76.6475,25518,2.55147
15708,76.7061,25528.5,2.55488
15720,76.7646,25548.4,2.55663
15732,76.8232,25573.7,2.558959
15744,76.8818,25593.7,2.56079
15756,76.94043,25605.5,2.56247
15768,76.999,25638.7,2.56601
15780,77.0576,25658.4,2.568567
15792,77.1162,25644.5,2.56703
15804,77.1748,25682.6,2.57007
15816,77.2334,25698.5,2.57194
15828,77.292,25729.5,2.57425
15840,77.3506,25747.6,2.57689
15852,77.40918,25766.6,2.58005
15864,77.4678,25767,2.58066
15876,77.5264,25764.3,2.58162
15888,77.585,25807.9,2.58368
15900,77.6436,25826.4,2.58603
15912,77.7021,25844.1,2.5873
15924,77.7607,25855,2.59017
15936,77.8193,25891.2,2.59168
15948,77.87793,25904.9,2.59369
15960,77.9365,25911.6,2.59485
15972,77.9951,25939,2.59591
15984,78.0537,25952.9,2.60063
15996,78.1123,25957.7,2.60083
16008,78.1709,25990,2.60281
16020,78.2295,26002.6,2.60384
16032,78.2881,26040.5,2.60908
16044,78.34668,26046,2.60897
16056,78.4053,26072.1,2.612114
16068,78.4639,26101.4,2.61325
16080,78.5225,26100.3,2.61502
16092,78.5811,26129.3,2.61746
16104,78.6396,26138.1,2.620189
16116,78.6982,26165.5,2.620858
16128,78.7568,26180.5,2.62278
16140,78.81543,26207.6,2.62695
16152,78.874,26215.7,2.62815
16164,78.9326,26224.1,2.62868
16176,78.9912,26263.2,2.63203
16188,79.0498,26245,2.63311
16200,79.1084,26277.8,2.63492
16212,79.167,26297.1,2.63704
16224,79.2256,26326.1,2.63739
16236,79.28418,26333.5,2.63969
16248,79.3428,26359.1,2.641434
16260,79.4014,26374.9,2.64431
16272,79.46,26402.6,2.6471
16284,79.5186,26386.9,2.64652
16296,79.5771,26424.3,2.65071
16308,79.6357,26451,2.65245
16320,79.6943,26483.4,2.65575
16332,79.75293,26476.2,2.65685
16344,79.8115,26508.7,2.658246
16356,79.8701,26532.1,2.65945
16368,79.9287,26540.5,2.66211
16380,79.9873,26566.3,2.66478
16392,80.0459,26579.1,2.66534
16404,80.1045,26607.8,2.66856
16416,80.1631,26599.5,2.670614
16428,80.22168,26637.2,2.67276
16440,80.2803,26666.7,2.67354
16452,80.3389,26656.6,2.67551
16464,80.3975,26680.2,2.677393
16476,80.4561,26703.7,2.6805
16488,80.5146,26722.7,2.68061
16500,80.5732,26741.7,2.68357
16512,80.6318,26753,2.68529
16524,80.69043,26785.4,2.68828
16536,80.749,26805.5,2.6904
16548,80.8076,26825.5,2.69293
16560,80.8662,26841.4,2.69463
16572,80.9248,26850.8,2.69527
16584,80.9834,26863.8,2.6967
16596,81.042,26887.3,2.69888
16608,81.1006,26911.8,2.70267
16620,81.15918,26918.7,2.70372
16632,81.2178,26941.1,2.70484
16644,81.2764,26962.5,2.70809
16656,81.335,26949,2.70832
16668,81.3936,27006.9,2.71248
16680,81.4521,27021.9,2.71318
16692,81.5107,27035.6,2.71682
16704,81.5693,27045.4,2.71724
16716,81.62793,27075.1,2.71945
16728,81.6865,27091.7,2.720165
16740,81.7451,27102.1,2.72233
16752,81.8037,27128.6,2.72474
16764,81.8623,27135.7,2.72715
16776,81.9209,27137.6,2.72803
16788,81.9795,27185.9,2.73174
16800,82.0381,27198.4,2.73233
16812,82.09668,27219,2.7341
16824,82.1553,27244.1,2.73633
16836,82.2139,27252.3,2.73772
16848,82.2725,27284.2,2.74123
16860,82.3311,27291.1,2.74346
16872,82.3896,27293.5,2.7442
16884,82.4482,27323.9,2.74722
16896,82.5068,27347.5,2.74951
16908,82.56543,27349.6,2.751092
16920,82.624,27382.9,2.75191
16932,82.6826,27389.2,2.75408
16944,82.7412,27399.6,2.75556
16956,82.7998,27428.9,2.75785
16968,82.8584,27435.8,2.75967
16980,82.917,27466,2.761013
16992,82.9756,27484.6,2.76309
17004,83.03418,27501.5,2.76466
17016,83.0928,27533.5,2.76776
17028,83.1514,27537.7,2.768784
17040,83.21,27548.3,2.77068
17052,83.2686,27588.3,2.77482
17064,83.3271,27579.9,2.77538
17076,83.3857,27599.9,2.77916
17088,83.4443,27633.5,2.77955
17100,83.50293,27650.9,2.77995
17112,83.5615,27667.7,2.78378
17124,83.6201,27679.1,2.784622
17136,83.6787,27712.8,2.78725
17148,83.7373,27727.5,2.78968
17160,83.7959,27751.6,2.79023
17172,83.8545,27761.9,2.79328
17184,83.9131,27748.4,2.79326
17196,83.97168,27794,2.79651
17208,84.0303,27814.4,2.7981
17220,84.0889,27835.5,2.79983
17232,84.1475,27844.3,2.80366
17244,84.2061,27868.1,2.80375
17256,84.2646,27878.9,2.80617
17268,84.3232,27897.7,2.8082
17280,84.3818,27929.3,2.80992
17292,84.44043,27936.4,2.81257
17304,84.499,27964.8,2.81464
17316,84.5576,27975.3,2.81659
17328,84.6162,28004.5,2.81902
17340,84.6748,28027.4,2.81977
17352,84.7334,28035.3,2.82207
17364,84.792,28055.2,2.82407
17376,84.8506,28064.5,2.82673
17388,84.90918,28077.2,2.82756
17400,84.9678,28108,2.83005
17412,85.0264,28118.3,2.83197
17424,85.085,28135.6,2.83404
17436,85.1436,28155.3,2.83547
17448,85.2021,28180.6,2.838
17460,85.2607,28198.1,2.841291
17472,85.3193,28214.3,2.83994
17484,85.37793,28229,2.84443
17496,85.4365,28241.4,2.84504
17508,85.4951,28265.2,2.84721
17520,85.5537,28283.2,2.85013
17532,85.6123,28281.9,2.84982
17544,85.6709,28312.8,2.85439
17556,85.7295,28331,2.85592
17568,85.7881,28363.7,2.85786
17580,85.84668,28357.6,2.85966
17592,85.9053,28388.4,2.86306
17604,85.9639,28415.1,2.86347
17616,86.0225,28419.4,2.86472
17628,86.0811,28444,2.86698
17640,86.1396,28454.2,2.86889
17652,86.1982,28475.9,2.87119
17664,86.2568,28492.5,2.87308
17676,86.31543,28504.2,2.87345
17688,86.374,28528.8,2.87633
17700,86.4326,28557.6,2.87917
17712,86.4912,28573.1,2.88104
17724,86.5498,28583.4,2.88224
17736,86.6084,28582.7,2.8828
17748,86.667,28623.2,2.88686
17760,86.7256,28633.9,2.88898
17766,86.7549,7062.82,3.024085