File: ASM109_2021_data/MTS/UD/MTS_UD_1.csv
,Time [s],Load [N],Displacement [mm]
0,0.0078125,-153.956,-0.000198036
12,0.06640625,-129.581,0.00200585
24,0.125,-131.109,0.0016129
36,0.183594,-116.093,0.00418022
48,0.2421875,-108.965,0.00632107
60,0.300781,-91.0527,0.00835285
72,0.359375,-71.113,0.0110842
84,0.417969,-57.668,0.0142609
96,0.4765625,-52.5951,0.0165725
108,0.535156,-50.1924,0.01627028
120,0.59375,-0.904171,0.0189476
132,0.652344,6.25661,0.0197795
144,0.7109375,18.1188,0.0209668
156,0.769531,44.2433,0.025481
168,0.828125,61.1267,0.0256343
180,0.886719,90.1905,0.0306746
192,0.9453125,78.9651,0.0289129
204,1.00391,99.7245,0.0318611
216,1.0625,114.57,0.0356698
228,1.12109,133.192,0.03465414
240,1.17969,168.912,0.039281
252,1.23828,149.552,0.0384088
264,1.296875,189.648,0.0420083
276,1.35547,209.967,0.0427477
288,1.41406,226.874,0.0456955
300,1.47266,242.15,0.0483446
312,1.53125,261.029,0.0496821
324,1.58984,283.41,0.051734
336,1.64844,293.515,0.0523889
348,1.70703,303.875,0.0550407
360,1.765625,323.804,0.0579728
372,1.82422,321.288,0.0585356
384,1.88281,375.507,0.0636582
396,1.94141,354.177,0.0620247
408,2.0,395.7,0.0651057
420,2.05859,411.429,0.0679743
432,2.11719,429.002,0.0673936
444,2.17578,459.296,0.0718059
456,2.234375,440.847,0.0719444
468,2.29297,484.032,0.0751756
480,2.35156,498.341,0.0784841
492,2.41016,513.07,0.0793746
504,2.46875,544.24,0.0819857
516,2.52734,521.045,0.081937
528,2.58594,564.544,0.0833425
540,2.64453,584.691,0.0856358
552,2.703125,596.945,0.0886305
564,2.76172,631.545,0.0913677
576,2.82031,610.011,0.0916524
588,2.87891,658.501,0.0952846
600,2.9375,664.405,0.0946373
612,2.99609,686.678,0.09776026
624,3.05469,701.564,0.100527
636,3.11328,714.949,0.101909
648,3.171875,738.539,0.104834
660,3.23047,743.208,0.105129
672,3.28906,783.733,0.1088
684,3.34766,782.193,0.108189
696,3.40625,793.87,0.111762
708,3.46484,828.169,0.114297
720,3.52344,828.78,0.114197
732,3.58203,862.531,0.119178
744,3.640625,873.197,0.119435
756,3.69922,885.817,0.120908
768,3.75781,909.218,0.124145
780,3.81641,918.799,0.125375
792,3.875,939.882,0.12869
804,3.93359,936.434,0.127919
816,3.99219,974.777,0.130715
828,4.05078,983.006,0.132634
840,4.109375,1004.26,0.134921
852,4.16797,1032.14,0.137711
864,4.22656,1035.32,0.137046
876,4.28516,1063.45,0.140806
888,4.34375,1069.7,0.143052
900,4.40234,1090.1,0.14373
912,4.46094,1107.5,0.147534
924,4.51953,1118.2,0.148808
936,4.578125,1147.18,0.150609
948,4.63672,1136.81,0.151714
960,4.69531,1179.6,0.155368
972,4.75391,1186.31,0.156342
984,4.8125,1209.57,0.159072
996,4.87109,1229.55,0.160788
1008,4.92969,1246.15,0.16182
1020,4.98828,1265.88,0.166794
1032,5.046875,1285.91,0.16798
1044,5.10547,1295.68,0.167221
1056,5.16406,1320.37,0.171295
1068,5.22266,1316.45,0.169989
1080,5.28125,1352.17,0.174103
1092,5.33984,1357.18,0.175725
1104,5.39844,1379.31,0.178623
1116,5.45703,1394.87,0.180922
1128,5.515625,1405.71,0.1822
1140,5.57422,1436.13,0.184139
1152,5.63281,1434.67,0.185705
1164,5.69141,1467.82,0.188821
1176,5.75,1480.18,0.189559
1188,5.80859,1502.23,0.1913783
1200,5.86719,1512.89,0.194892
1212,5.92578,1521.92,0.193661
1224,5.984375,1557.03,0.197555
1236,6.04297,1561.62,0.201101
1248,6.10156,1567.19,0.201038
1260,6.16016,1609.3,0.20345
1272,6.21875,1604.18,0.2037634
1284,6.27734,1637.47,0.208635
1296,6.33594,1644.47,0.207798
1308,6.39453,1668.32,0.212897
1320,6.453125,1682.07,0.214171
1332,6.51172,1693.19,0.215645
1344,6.57031,1717.29,0.217379
1356,6.62891,1720.44,0.2173081
1368,6.6875,1760.15,0.222029
1380,6.74609,1764.26,0.223521
1392,6.80469,1791.17,0.224679
1404,6.86328,1801.65,0.227551
1416,6.921875,1810.62,0.227482
1428,6.98047,1841.52,0.231205
1440,7.03906,1840.45,0.232895
1452,7.09766,1873.29,0.234294
1464,7.15625,1888.09,0.238617
1476,7.21484,1901.13,0.2380304
1488,7.27344,1935.25,0.241678
1500,7.33203,1915.5,0.240567
1512,7.390625,1955.16,0.245495
1524,7.44922,1965.04,0.24644
1536,7.50781,1983.53,0.247745
1548,7.56641,2014.64,0.250724
1560,7.625,2002.34,0.251454
1572,7.68359,2048.19,0.255793
1584,7.74219,2064,0.256982
1596,7.80078,2074.13,0.257301
1608,7.859375,2089.68,0.261543
1620,7.91797,2093.38,0.261021
1632,7.97656,2131.08,0.264747
1644,8.03516,2130.29,0.264573
1656,8.09375,2161.36,0.267559
1668,8.15234,2182.38,0.270117
1680,8.21094,2186.51,0.271289
1692,8.26953,2211.14,0.273998
1704,8.328125,2203.64,0.273743
1716,8.38672,2249.73,0.277713
1728,8.44531,2265.58,0.27896
1740,8.50391,2279.76,0.282118
1752,8.5625,2297.57,0.283806
1764,8.62109,2302.41,0.284103
1776,8.67969,2335.34,0.288646
1788,8.73828,2334.79,0.290383
1800,8.796875,2352.91,0.290392
1812,8.85547,2381.02,0.293315
1824,8.91406,2380.27,0.2940698
1836,8.97266,2417.08,0.298655
1848,9.03125,2410.51,0.297452
1860,9.08984,2440.37,0.300501
1872,9.14844,2460.87,0.303722
1884,9.20703,2465.98,0.304894
1896,9.265625,2500.99,0.306685
1908,9.32422,2502.17,0.307001
1920,9.38281,2525.2,0.3111349
1932,9.44141,2551.1,0.311552
1944,9.5,2558.48,0.314351
1956,9.55859,2586.07,0.316106
1968,9.61719,2593.33,0.317826
1980,9.67578,2609.36,0.319736
1992,9.734375,2631.58,0.3221257
2004,9.79297,2655.12,0.3249009
2016,9.85156,2660.8,0.325995
2028,9.91016,2681.98,0.327815
2040,9.96875,2703.44,0.331571
2052,10.0273,2688.74,0.330709
2064,10.0859,2740.46,0.3356494
2076,10.1445,2754.84,0.336566
2088,10.2031,2758.96,0.3386794
2100,10.2617,2779.07,0.340908
2112,10.3203,2786.79,0.34047
2124,10.3789,2819.74,0.343591
2136,10.4375,2825.24,0.345475
2148,10.4961,2844.28,0.347037
2160,10.5547,2864.28,0.350191
2172,10.6133,2862.18,0.348765
2184,10.6719,2904.3,0.353971
2196,10.7305,2889.81,0.353523
2208,10.7891,2934.79,0.357276
2220,10.8477,2952.35,0.3580521
2232,10.90625,2968.01,0.359207
2244,10.9648,2990.04,0.363273
2256,11.0234,2985.48,0.362717
2268,11.082,3019.95,0.366877
2280,11.1406,3042.18,0.36856
2292,11.1992,3052.71,0.370422
2304,11.2578,3078.36,0.373218
2316,11.3164,3075,0.373929
2328,11.375,3110.89,0.376767
2340,11.4336,3122.82,0.377391
2352,11.4922,3149.15,0.380924
2364,11.5508,3160.92,0.3824468
2376,11.6094,3157.89,0.38461
2388,11.668,3200.49,0.387596
2400,11.7266,3200.37,0.387449
2412,11.7852,3230.99,0.3905265
2424,11.84375,3241.23,0.392832
2436,11.9023,3262.79,0.395095
2448,11.9609,3280.76,0.396895
2460,12.0195,3269.77,0.397305
2472,12.0781,3317.68,0.400713
2484,12.1367,3333.18,0.402296
2496,12.1953,3355.93,0.404783
2508,12.2539,3372.9,0.40701
2520,12.3125,3381.55,0.40807
2532,12.3711,3409.36,0.410423
2544,12.4297,3400.39,0.411026
2556,12.4883,3434.23,0.414409
2568,12.5469,3455.12,0.416695
2580,12.6055,3470.63,0.418427
2592,12.6641,3481.75,0.421687
2604,12.7227,3497.1,0.4202275
2616,12.78125,3538.77,0.424925
2628,12.8398,3510.93,0.425291
2640,12.8984,3550.78,0.427462
2652,12.957,3579.59,0.429933
2664,13.0156,3579.86,0.429321
2676,13.0742,3609.08,0.436309
2688,13.1328,3591.12,0.433775
2700,13.1914,3638.91,0.437241
2712,13.25,3653.53,0.4404451
2724,13.3086,3670.96,0.4413642
2736,13.3672,3702.72,0.4450424
2748,13.4258,3678.74,0.444292
2760,13.4844,3740.42,0.447989
2772,13.543,3728.23,0.44873
2784,13.6016,3761.7,0.4516165
2796,13.6602,3777.03,0.453396
2808,13.71875,3772.91,0.454237
2820,13.7773,3807.28,0.457506
2832,13.8359,3820.98,0.45982
2844,13.8945,3848.43,0.460669
2856,13.9531,3861.98,0.463676
2868,14.0117,3869.76,0.465302
2880,14.0703,3901.34,0.468058
2892,14.1289,3889.35,0.468282
2904,14.1875,3927.92,0.470691
2916,14.2461,3938.06,0.472845
2928,14.3047,3941.59,0.474484
2940,14.3633,3983.06,0.4777582
2952,14.4219,3972.23,0.47839
2964,14.4805,4015.06,0.480575
2976,14.5391,4024.12,0.48223
2988,14.5977,4043.63,0.484528
3000,14.65625,4069.37,0.487499
3012,14.7148,4078.53,0.4877834
3024,14.7734,4103.74,0.491186
3036,14.832,4113.82,0.492346
3048,14.8906,4128.07,0.495993
3060,14.9492,4164.23,0.495341
3072,15.0078,4147.62,0.496943
3084,15.0664,4192.4,0.5019213
3096,15.125,4182.69,0.501498
3108,15.1836,4219.8,0.503055
3120,15.2422,4242.32,0.506459
3132,15.3008,4257.4,0.508335
3144,15.3594,4275.13,0.51055
3156,15.418,4259.55,0.510611
3168,15.4766,4309.07,0.515189
3180,15.5352,4310.59,0.515152
3192,15.59375,4331.16,0.517888
3204,15.6523,4352.39,0.519903
3216,15.7109,4369.26,0.520986
3228,15.7695,4390.81,0.525308
3240,15.8281,4401.34,0.524549
3252,15.8867,4428.22,0.526531
3264,15.9453,4443.99,0.529645
3276,16.0039,4453.34,0.531161
3288,16.0625,4474.95,0.533598
3300,16.1211,4486.47,0.533947
3312,16.1797,4501.57,0.537846
3324,16.2383,4526.65,0.538972
3336,16.2969,4535.82,0.541157
3348,16.3555,4554.62,0.544062
3360,16.4141,4556.82,0.543817
3372,16.4727,4603.47,0.548238
3384,16.53125,4593.35,0.5478121
3396,16.5898,4632.08,0.550528
3408,16.6484,4640.11,0.553064
3420,16.707,4654.89,0.553406
3432,16.7656,4689.41,0.557551
3444,16.8242,4663.93,0.557431
3456,16.8828,4700.47,0.561242
3468,16.9414,4729.15,0.563292
3480,17.0,4735.95,0.565137
3492,17.0586,4758.57,0.567733
3504,17.1172,4761.58,0.567812
3516,17.1758,4804.01,0.570847
3528,17.2344,4804.65,0.571966
3540,17.293,4820.51,0.5724
3552,17.3516,4843.42,0.57632
3564,17.4102,4840.63,0.57778
3576,17.46875,4888.11,0.580625
3588,17.5273,4895.08,0.580843
3600,17.5859,4909.78,0.584384
3612,17.6445,4928.41,0.585592
3624,17.7031,4941.87,0.587641
3636,17.7617,4974.51,0.592074
3648,17.8203,4961.17,0.590448
3660,17.8789,5005.94,0.594939
3672,17.9375,5008.89,0.594756
3684,17.9961,5035.72,0.598202
3696,18.0547,5060.22,0.600656
3708,18.1133,5036,0.600474
3720,18.1719,5093.75,0.603941
3732,18.2305,5094.93,0.605505
3744,18.2891,5125.63,0.606224
3756,18.3477,5145.02,0.610641
3768,18.40625,5163.18,0.6114341
3780,18.4648,5181.6,0.613888
3792,18.5234,5169.12,0.61482
3804,18.582,5209.16,0.617979
3816,18.6406,5223.23,0.620373
3828,18.6992,5239.52,0.620279
3840,18.7578,5267.41,0.625154
3852,18.8164,5242.06,0.623809
3864,18.875,5293.22,0.628282
3876,18.9336,5300.33,0.62841
3888,18.9922,5327.6,0.631172
3900,19.0508,5345.8,0.632818
3912,19.1094,5343.09,0.632547
3924,19.168,5386.69,0.638067
3936,19.2266,5374.17,0.638722
3948,19.2852,5404.71,0.640696
3960,19.34375,5423.1,0.642021
3972,19.4023,5435.43,0.645211
3984,19.4609,5469.67,0.64863
3996,19.5195,5459.33,0.648736
4008,19.5781,5498.47,0.650565
4020,19.6367,5517.71,0.65309
4032,19.6953,5525.71,0.655199
4044,19.7539,5543.6,0.656273
4056,19.8125,5533.2,0.658387
4068,19.8711,5585.38,0.660232
4080,19.9297,5567.74,0.661998
4092,19.9883,5619.27,0.666197
4104,20.0469,5618.47,0.667989
4116,20.1055,5651.7,0.668922
4128,20.1641,5678.72,0.671088
4140,20.2227,5637.67,0.670583
4152,20.28125,5700.72,0.675123
4164,20.3398,5717.55,0.67638
4176,20.3984,5731.86,0.679549
4188,20.457,5747.52,0.679841
4200,20.5156,5748.56,0.6823982
4212,20.5742,5796.84,0.684138
4224,20.6328,5781.26,0.685354
4236,20.6914,5817.17,0.687871
4248,20.75,5827.27,0.690038
4260,20.8086,5836.69,0.691213
4272,20.8672,5866.66,0.694277
4284,20.9258,5878.98,0.693893
4296,20.9844,5899.78,0.697262
4308,21.043,5921.59,0.700678
4320,21.1016,5925.06,0.700995
4332,21.1602,5956.78,0.703378
4344,21.21875,5946.29,0.705117
4356,21.2773,5992.43,0.708628
4368,21.3359,6002.16,0.709491
4380,21.3945,6017.28,0.711726
4392,21.4531,6042.69,0.713714
4404,21.5117,6048.83,0.714603
4416,21.5703,6083.91,0.717584
4428,21.6289,6080.01,0.718384
4440,21.6875,6109.41,0.721668
4452,21.7461,6102.26,0.724598
4464,21.8047,6142.46,0.725443
4476,21.8633,6163.22,0.728811
4488,21.9219,6139.25,0.72761
4500,21.9805,6187.26,0.73101
4512,22.0391,6205.1,0.732744
4524,22.0977,6223.14,0.7334702
4536,22.15625,6245.09,0.738233
4548,22.2148,6248.61,0.736963
4560,22.2734,6291.06,0.741855
4572,22.332,6271.29,0.744137
4584,22.3906,6312.83,0.7443769
4596,22.4492,6342.42,0.748267
4608,22.5078,6334.55,0.748052
4620,22.5664,6373.72,0.751851
4632,22.625,6364.55,0.751935
4644,22.6836,6402.82,0.754706
4656,22.7422,6402.02,0.756053
4668,22.8008,6427.6,0.758586
4680,22.8594,6461.33,0.762158
4692,22.918,6428.86,0.761786
4704,22.9766,6482.53,0.764354
4716,23.0352,6501.32,0.766833
4728,23.09375,6515.04,0.769616
4740,23.1523,6537.94,0.771466
4752,23.2109,6549.35,0.771924
4764,23.2695,6565.15,0.7764678
4776,23.3281,6581.92,0.7754128
4788,23.3867,6592.52,0.778053
4800,23.4453,6610.82,0.779938
4812,23.5039,6629.49,0.780416
4824,23.5625,6659.57,0.785543
4836,23.6211,6625.13,0.783784
4848,23.6797,6687.83,0.788658
4860,23.7383,6699.73,0.788267
4872,23.7969,6710.12,0.791292
4884,23.8555,6734.77,0.79489
4896,23.9141,6746.11,0.794001
4908,23.9727,6779.29,0.798075
4920,24.03125,6788.19,0.798814
4932,24.0898,6801.66,0.801667
4944,24.1484,6831.48,0.804189
4956,24.207,6839.04,0.804728
4968,24.2656,6860.35,0.807961
4980,24.3242,6867.11,0.808612
4992,24.3828,6892.98,0.813603
5004,24.4414,6904.06,0.813439
5016,24.5,6915.43,0.813955
5028,24.5586,6940.22,0.81908
5040,24.6172,6948.16,0.817851
5052,24.6758,6975.64,0.820908
5064,24.7344,6994.85,0.822141
5076,24.793,7002.24,0.824215
5088,24.8516,7033.21,0.827257
5100,24.9102,7000.5,0.828035
5112,24.96875,7061.98,0.83122
5124,25.0273,7064.46,0.832465
5136,25.0859,7092.55,0.834834
5148,25.1445,7106.83,0.83709
5160,25.2031,7109.95,0.836894
5172,25.2617,7151.7,0.840203
5184,25.3203,7131.14,0.842429
5196,25.3789,7177.4,0.84474
5208,25.4375,7191.79,0.844969
5220,25.4961,7202.34,0.848727
5232,25.5547,7229.47,0.850152
5244,25.6133,7222.81,0.850408
5256,25.6719,7266.25,0.854798
5268,25.7305,7258.07,0.854828
5280,25.7891,7295.42,0.85746
5292,25.8477,7316,0.859448
5304,25.90625,7316.18,0.86079
5316,25.9648,7351.05,0.864396
5328,26.0234,7325.6,0.865911
5340,26.082,7367.53,0.86807
5352,26.1406,7399.18,0.870072
5364,26.1992,7402.97,0.869487
5376,26.2578,7437.36,0.874934
5388,26.3164,7409.61,0.874155
5400,26.375,7466.78,0.877541
5412,26.4336,7464.54,0.878152
5424,26.4922,7492.35,0.879786
5436,26.5508,7514.29,0.882723
5448,26.6094,7491.74,0.884024
5460,26.668,7563.87,0.887185
5472,26.7266,7543.32,0.88785
5484,26.7852,7579.77,0.890743
5496,26.84375,7599.17,0.892573
5508,26.9023,7611.02,0.893438
5520,26.9609,7638.68,0.89789
5532,27.0195,7623.35,0.897304
5544,27.0781,7673.49,0.901442
5556,27.1367,7686.71,0.903836
5568,27.1953,7702.56,0.9036206
5580,27.2539,7719.07,0.908199
5592,27.3125,7725.54,0.907225
5604,27.3711,7764.19,0.911627
5616,27.4297,7757.49,0.9110378
5628,27.4883,7777.03,0.913935
5640,27.5469,7814.95,0.916588
5652,27.6055,7816.3,0.917177
5664,27.6641,7844.18,0.9227581
5676,27.7227,7842.92,0.92223
5688,27.78125,7875.63,0.924953
5700,27.8398,7889.48,0.92762
5712,27.8984,7900.18,0.928267
5724,27.957,7922.17,0.931668
5736,28.0156,7927.3,0.931289
5748,28.0742,7965.81,0.935542
5760,28.1328,7980.51,0.937524
5772,28.1914,7999.56,0.9392314
5784,28.25,8016.17,0.94087
5796,28.3086,8009.52,0.941223
5808,28.3672,8051.7,0.944951
5820,28.4258,8050.5,0.945114
5832,28.4844,8068.77,0.94778
5844,28.543,8088.01,0.949679
5856,28.6016,8105.26,0.95061
5868,28.6602,8131.76,0.955014
5880,28.71875,8129.8,0.954221
5892,28.7773,8161.29,0.95782
5904,28.8359,8182.65,0.959437
5916,28.8945,8191.32,0.960758
5928,28.9531,8218.27,0.963775
5940,29.0117,8215.15,0.965014
5952,29.0703,8258.96,0.968155
5964,29.1289,8251.17,0.967078
5976,29.1875,8285.67,0.9713285
5988,29.2461,8308,0.97308
6000,29.3047,8299.82,0.974191
6012,29.3633,8339.23,0.978022
6024,29.4219,8329.66,0.979371
6036,29.4805,8375.86,0.9809773
6048,29.5391,8386.42,0.982682
6060,29.5977,8397.99,0.983423
6072,29.65625,8424.64,0.987006
6084,29.7148,8413.25,0.987332
6096,29.7734,8454.09,0.991071
6108,29.832,8460.68,0.992131
6120,29.8906,8479.25,0.994807
6132,29.9492,8504.63,0.997445
6144,30.0078,8496.78,0.997705
6156,30.0664,8535.3,1.0001
6168,30.125,8549.02,1.00222
6180,30.1836,8571.35,1.00428
6192,30.2422,8595.64,1.00743
6204,30.3008,8602.14,1.00768
6216,30.3594,8631.87,1.01028
6228,30.418,8620.29,1.01096
6240,30.4766,8658.36,1.01371
6252,30.5352,8666.77,1.01618
6264,30.59375,8690.97,1.017517
6276,30.6523,8714.76,1.01985
6288,30.7109,8692.87,1.02154
6300,30.7695,8739.53,1.02473
6312,30.8281,8740.94,1.02494
6324,30.8867,8762.33,1.02672
6336,30.9453,8789.19,1.03129
6348,31.0039,8785.66,1.02895
6360,31.0625,8821.52,1.03428
6372,31.1211,8826.07,1.034988
6384,31.1797,8854.35,1.03839
6396,31.2383,8876.13,1.0396
6408,31.2969,8884.72,1.04038
6420,31.3555,8912.16,1.04401
6432,31.4141,8891.64,1.04501
6444,31.4727,8943.25,1.04755
6456,31.53125,8945.32,1.04799
6468,31.5898,8972.06,1.05127
6480,31.6484,8999.92,1.054324
6492,31.707,8981.47,1.054206
6504,31.7656,9028.14,1.05836
6516,31.8242,9026.43,1.05781
6528,31.8828,9054.84,1.06046
6540,31.9414,9077.35,1.06223
6552,32.0,9078.55,1.06413
6564,32.0586,9116.91,1.06712
6576,32.1172,9118.22,1.06775
6588,32.1758,9144.82,1.07076
6600,32.2344,9160.51,1.072893
6612,32.293,9174.28,1.073898
6624,32.3516,9195.97,1.077122
6636,32.4102,9190.83,1.07708
6648,32.46875,9235.08,1.08113
6660,32.5273,9228.85,1.08306
6672,32.5859,9263.36,1.08461
6684,32.6445,9282.53,1.08487
6696,32.7031,9266.42,1.08848
6708,32.7617,9316.37,1.09115
6720,32.8203,9308.02,1.09136
6732,32.8789,9354.49,1.09457
6744,32.9375,9363.21,1.09485
6756,32.9961,9374.05,1.09716
6768,33.0547,9402.71,1.10141
6780,33.1133,9397.64,1.10195
6792,33.1719,9432.63,1.103708
6804,33.2305,9447.19,1.10543
6816,33.2891,9463.29,1.10768
6828,33.3477,9477.09,1.1107
6840,33.40625,9481.74,1.11084
6852,33.4648,9527.77,1.11305
6864,33.5234,9519.13,1.11547
6876,33.582,9552.36,1.11894
6888,33.6406,9562.4,1.11937
6900,33.6992,9582.34,1.12151
6912,33.7578,9596.77,1.12354
6924,33.8164,9608.63,1.12328
6936,33.875,9629.13,1.12902
6948,33.9336,9636.5,1.12856
6960,33.9922,9661.05,1.13135
6972,34.0508,9669.59,1.13273
6984,34.1094,9677.99,1.13284
6996,34.168,9714.7,1.13728
7008,34.2266,9726.52,1.13763
7020,34.2852,9743,1.14166
7032,34.34375,9762.6,1.14305
7044,34.4023,9785.6,1.14589
7056,34.4609,9815.74,1.14908
7068,34.5195,9818.75,1.14818
7080,34.5781,9838.26,1.151623
7092,34.6367,9849.06,1.1527
7104,34.6953,9864.66,1.155337
7116,34.7539,9892.98,1.15802
7128,34.8125,9896.54,1.15876
7140,34.8711,9916.9,1.16046
7152,34.9297,9936.26,1.16363
7164,34.9883,9947.47,1.16418
7176,35.0469,9967.54,1.16567
7188,35.1055,9974.12,1.16877
7200,35.1641,10009.7,1.1707
7212,35.2227,10007.3,1.1714
7224,35.28125,10027.7,1.1745
7236,35.3398,10054.6,1.17617
7248,35.3984,10064.8,1.17812
7260,35.457,10091.9,1.18096
7272,35.5156,10097.5,1.18247
7284,35.5742,10126.5,1.1842
7296,35.6328,10132,1.18589
7308,35.6914,10164.6,1.18961
7320,35.75,10173.6,1.19208
7332,35.8086,10192.1,1.19212
7344,35.8672,10224.6,1.195
7356,35.9258,10218,1.19768
7368,35.9844,10253,1.19936
7380,36.043,10265.8,1.20123
7392,36.1016,10270.3,1.20276
7404,36.1602,10306.4,1.20526
7416,36.21875,10286.1,1.20538
7428,36.2773,10335.7,1.207775
7440,36.3359,10323.6,1.20943
7452,36.3945,10361.4,1.21057
7464,36.4531,10379.9,1.21492
7476,36.5117,10373.5,1.21363
7488,36.5703,10407.3,1.21757
7500,36.6289,10404.1,1.21837
7512,36.6875,10448.6,1.22142
7524,36.7461,10446.1,1.22257
7536,36.8047,10474.4,1.22452
7548,36.8633,10501.2,1.22956
7560,36.9219,10489.1,1.22829
7572,36.9805,10531.3,1.23216
7584,37.0391,10531.6,1.23321
7596,37.0977,10564.6,1.235324
7608,37.15625,10585.1,1.23836
7620,37.2148,10587.5,1.23929
7632,37.2734,10616.7,1.24219
7644,37.332,10607.8,1.24228
7656,37.3906,10651.3,1.24591
7668,37.4492,10668.3,1.24686
7680,37.5078,10668.2,1.24846
7692,37.5664,10699.3,1.25175
7704,37.625,10695.7,1.25307
7716,37.6836,10731.8,1.25628
7728,37.7422,10751.2,1.25661
7740,37.8008,10759.3,1.25857
7752,37.8594,10793.3,1.26116
7764,37.918,10783.2,1.26209
7776,37.9766,10826.7,1.26532
7788,38.0352,10824.9,1.26679
7800,38.09375,10852.2,1.26804
7812,38.1523,10866.6,1.27076
7824,38.2109,10878.4,1.27226
7836,38.2695,10907.4,1.27524
7848,38.3281,10902.5,1.27613
7860,38.3867,10932.4,1.27782
7872,38.4453,10945.3,1.27997
7884,38.5039,10960.2,1.28124
7896,38.5625,10987.3,1.28541
7908,38.6211,10985.6,1.28511
7920,38.6797,11027.5,1.2887
7932,38.7383,11031,1.29033
7944,38.7969,11053.6,1.29319
7956,38.8555,11070.5,1.29418
7968,38.9141,11062.7,1.29499
7980,38.9727,11116,1.29853
7992,39.03125,11100.1,1.30014
8004,39.0898,11136,1.30094
8016,39.1484,11147.6,1.30236
8028,39.207,11137.5,1.305065
8040,39.2656,11186.2,1.30674
8052,39.3242,11179.5,1.309108
8064,39.3828,11220.9,1.31214
8076,39.4414,11223.2,1.311556
8088,39.5,11248.4,1.31449
8100,39.5586,11275.8,1.3188
8112,39.6172,11272.3,1.32023
8124,39.6758,11311.5,1.32229
8136,39.7344,11305.6,1.32361
8148,39.793,11346.3,1.32588
8160,39.8516,11355.2,1.32695
8172,39.9102,11350.7,1.32852
8184,39.96875,11389.4,1.33175
8196,40.0273,11381.2,1.3319
8208,40.0859,11412.8,1.33424
8220,40.1445,11443.3,1.33699
8232,40.2031,11439.8,1.33833
8244,40.2617,11473.4,1.3404
8256,40.3203,11468.9,1.34191
8268,40.3789,11508.3,1.34474
8280,40.4375,11517,1.34616
8292,40.4961,11542.8,1.34971
8304,40.5547,11549.8,1.34951
8316,40.6133,11546.2,1.35166
8328,40.6719,11587.1,1.35392
8340,40.7305,11597.5,1.35598
8352,40.7891,11625,1.35811
8364,40.8477,11639.7,1.36102
8376,40.90625,11652.8,1.361673
8388,40.9648,11682.3,1.36399
8400,41.0234,11676.6,1.36587
8412,41.082,11713,1.36835
8424,41.1406,11711.1,1.37046
8436,41.1992,11738.5,1.37192
8448,41.2578,11770.1,1.37414
8460,41.3164,11754.3,1.37582
8472,41.375,11799.1,1.378858
8484,41.4336,11795,1.38025
8496,41.4922,11820.5,1.3826
8508,41.5508,11846.9,1.38433
8520,41.6094,11852.3,1.386816
8532,41.668,11873.7,1.38808
8544,41.7266,11874.5,1.38906
8556,41.7852,11914.8,1.3922
8568,41.84375,11929.2,1.39496
8580,41.9023,11935.2,1.39449
8592,41.9609,11969.7,1.39735
8604,42.0195,11963.1,1.39978
8616,42.0781,12001.3,1.40106
8628,42.1367,11996.7,1.402676
8640,42.1953,12028.6,1.40554
8652,42.2539,12051.2,1.4078
8664,42.3125,12046.8,1.40852
8676,42.3711,12084.2,1.41165
8688,42.4297,12081.3,1.41232
8700,42.4883,12106.3,1.41561
8712,42.5469,12131.3,1.41753
8724,42.6055,12136.9,1.41764
8736,42.6641,12174.8,1.42032
8748,42.7227,12164.8,1.42249
8760,42.78125,12200.4,1.42397
8772,42.8398,12189.6,1.4271
8784,42.8984,12222,1.42904
8796,42.957,12258.9,1.43124
8808,43.0156,12244,1.43106
8820,43.0742,12282.7,1.43454
8832,43.1328,12266.1,1.43447
8844,43.1914,12313.5,1.43751
8856,43.25,12331.9,1.441087
8868,43.3086,12339.4,1.44111
8880,43.3672,12373.8,1.443
8892,43.4258,12356.8,1.44571
8904,43.4844,12404.2,1.44745
8916,43.543,12422.3,1.450987
8928,43.6016,12422.6,1.45133
8940,43.6602,12452,1.453638
8952,43.71875,12449.8,1.45574
8964,43.7773,12480.1,1.45739
8976,43.8359,12490.4,1.459874
8988,43.8945,12514,1.4623
9000,43.9531,12543.1,1.4643
9012,44.0117,12515.8,1.46551
9024,44.0703,12570.5,1.46709
9036,44.1289,12569.5,1.46763
9048,44.1875,12603.7,1.47301
9060,44.2461,12625.2,1.4742
9072,44.3047,12618.1,1.474949
9084,44.3633,12656,1.4777
9096,44.4219,12645.3,1.4785
9108,44.4805,12690.8,1.48147
9120,44.5391,12701.8,1.483187
9132,44.5977,12713.3,1.48487
9144,44.65625,12736.8,1.48829
9156,44.7148,12724.5,1.4883
9168,44.7734,12775,1.4917
9180,44.832,12775.8,1.49281
9192,44.8906,12797.4,1.49464
9204,44.9492,12815,1.49574
9216,45.0078,12817.5,1.49872
9228,45.0664,12845.8,1.50085
9240,45.125,12844,1.5017
9252,45.1836,12881.3,1.50547
9264,45.2422,12894.1,1.50645
9276,45.3008,12917.1,1.50786
9288,45.3594,12937.7,1.51174
9300,45.418,12932.9,1.51142
9312,45.4766,12977.9,1.51587
9324,45.5352,12976.6,1.5167
9336,45.59375,12993.7,1.51699
9348,45.6523,13027.4,1.52173
9360,45.7109,13009.3,1.52197
9372,45.7695,13060.2,1.524619
9384,45.8281,13040.4,1.52582
9396,45.8867,13084,1.52823
9408,45.9453,13097.6,1.52983
9420,46.0039,13118,1.53107
9432,46.0625,13130.2,1.53419
9444,46.1211,13135.4,1.53543
9456,46.1797,13164.2,1.5385
9468,46.2383,13185.3,1.538908
9480,46.2969,13188.8,1.54105
9492,46.3555,13215.1,1.54258
9504,46.4141,13207.8,1.54459
9516,46.4727,13264.2,1.54903
9528,46.53125,13253.2,1.54966
9540,46.5898,13285,1.55191
9552,46.6484,13304.9,1.55439
9564,46.707,13299,1.55451
9576,46.7656,13327.9,1.55726
9588,46.8242,13336.5,1.55825
9600,46.8828,13369.9,1.56064
9612,46.9414,13386.4,1.56345
9624,47.0,13382.2,1.56394
9636,47.0586,13418.2,1.5666
9648,47.1172,13429.5,1.56808
9660,47.1758,13450,1.57196
9672,47.2344,13461.9,1.57292
9684,47.293,13481.2,1.574307
9696,47.3516,13501.2,1.57751
9708,47.4102,13511.2,1.57796
9720,47.46875,13536.8,1.581
9732,47.5273,13538.7,1.584
9744,47.5859,13569.2,1.58432
9756,47.6445,13587.1,1.58676
9768,47.7031,13581.4,1.58709
9780,47.7617,13631.2,1.5894
9792,47.8203,13607.9,1.5918
9804,47.8789,13650.8,1.59424
9816,47.9375,13663.7,1.59631
9828,47.9961,13687.9,1.59711
9840,48.0547,13709.1,1.60155
9852,48.1133,13713.9,1.60163
9864,48.1719,13728.5,1.60455
9876,48.2305,13744.4,1.60544
9888,48.2891,13777.4,1.60683
9900,48.3477,13790.9,1.60903
9912,48.40625,13794.7,1.61061
9924,48.4648,13827.2,1.61491
9936,48.5234,13829.5,1.61453
9948,48.582,13859.9,1.6183
9960,48.6406,13871.5,1.61974
9972,48.6992,13867.9,1.62222
9984,48.7578,13907.7,1.624179
9996,48.8164,13900,1.6258
10008,48.875,13941.4,1.62732
10020,48.9336,13941.9,1.62973
10032,48.9922,13970.4,1.63079
10044,49.0508,13987.9,1.63286
10056,49.1094,13997.9,1.63513
10068,49.168,14024.1,1.63727
10080,49.2266,14031,1.63889
10092,49.2852,14061.3,1.6421
10104,49.34375,14081.3,1.64155
10116,49.4023,14082.6,1.64394
10128,49.4609,14099.9,1.6467
10140,49.5195,14118.8,1.64789
10152,49.5781,14149.1,1.65162
10164,49.6367,14153.1,1.65305
10176,49.6953,14171.3,1.65451
10188,49.7539,14197.3,1.65757
10200,49.8125,14193,1.65853
10212,49.8711,14225.8,1.66093
10224,49.9297,14223.6,1.66413
10236,49.9883,14255.4,1.66543
10248,50.0469,14277.9,1.66661
10260,50.1055,14284.6,1.66819
10272,50.1641,14302.5,1.670161
10284,50.2227,14301.5,1.67169
10296,50.28125,14338.1,1.67362
10308,50.3398,14359.2,1.67635
10320,50.3984,14360.2,1.67898
10332,50.457,14396.3,1.67912
10344,50.5156,14384.6,1.681488
10356,50.5742,14417,1.6822
10368,50.6328,14424.8,1.68399
10380,50.6914,14460.7,1.68714
10392,50.75,14479.2,1.6898
10404,50.8086,14481.9,1.69163
10416,50.8672,14499.4,1.69346
10428,50.9258,14513.9,1.69535
10440,50.9844,14534.9,1.69724
10452,51.043,14560.5,1.69992
10464,51.1016,14556,1.70019
10476,51.1602,14595.7,1.70424
10488,51.21875,14600.7,1.70463
10500,51.2773,14624.9,1.70778
10512,51.3359,14627.9,1.70921
10524,51.3945,14639.2,1.70949
10536,51.4531,14683.5,1.71336
10548,51.5117,14682.9,1.713485
10560,51.5703,14702.3,1.71644
10572,51.6289,14715.9,1.71977
10584,51.6875,14729.9,1.72031
10596,51.7461,14757.5,1.72255
10608,51.8047,14758.2,1.72283
10620,51.8633,14786.6,1.72657
10632,51.9219,14791,1.72834
10644,51.9805,14827.6,1.73092
10656,52.0391,14833.2,1.73291
10668,52.0977,14847.5,1.73377
10680,52.15625,14867.1,1.73629
10692,52.2148,14871.1,1.73815
10704,52.2734,14901.4,1.74179
10716,52.332,14905.8,1.74202
10728,52.3906,14935.1,1.74435
10740,52.4492,14944.6,1.74606
10752,52.5078,14970.2,1.74833
10764,52.5664,14985.5,1.74996
10776,52.625,14986.8,1.75089
10788,52.6836,15022.2,1.75474
10800,52.7422,15040.2,1.75692
10812,52.8008,15036.1,1.75833
10824,52.8594,15072.9,1.7604
10836,52.918,15080,1.7617
10848,52.9766,15103.2,1.76263
10860,53.0352,15115.3,1.76549
10872,53.09375,15128.6,1.76581
10884,53.1523,15159.2,1.77053
10896,53.2109,15168.4,1.77095
10908,53.2695,15191.7,1.77306
10920,53.3281,15197,1.77599
10932,53.3867,15220.8,1.77708
10944,53.4453,15238,1.77951
10956,53.5039,15249.6,1.78068
10968,53.5625,15277,1.7844
10980,53.6211,15287.1,1.78577
10992,53.6797,15316.8,1.78873
11004,53.7383,15324.1,1.78853
11016,53.7969,15332.8,1.79115
11028,53.8555,15358,1.79488
11040,53.9141,15371.4,1.79325
11052,53.9727,15392.5,1.7951
11064,54.03125,15379.5,1.79881
11076,54.0898,15419,1.80027
11088,54.1484,15451.4,1.80301
11100,54.207,15435.3,1.80585
11112,54.2656,15474.6,1.80768
11124,54.3242,15469.6,1.80839
11136,54.3828,15519.2,1.81182
11148,54.4414,15513.4,1.81192
11160,54.5,15538.1,1.8137
11172,54.5586,15563.9,1.81683
11184,54.6172,15562.8,1.81868
11196,54.6758,15597.9,1.8201
11208,54.7344,15601.3,1.82229
11220,54.793,15625.2,1.82373
11232,54.8516,15643.8,1.82614
11244,54.9102,15647.9,1.82732
11256,54.96875,15675.7,1.82954
11268,55.0273,15690,1.83133
11280,55.0859,15705.8,1.83338
11292,55.1445,15722.5,1.83616
11304,55.2031,15729,1.83759
11316,55.2617,15766.2,1.84122
11328,55.3203,15768,1.84212
11340,55.3789,15787.9,1.84241
11352,55.4375,15803.7,1.84517
11364,55.4961,15815.3,1.84684
11376,55.5547,15844,1.85077
11388,55.6133,15843.9,1.852553
11400,55.6719,15866.7,1.85167
11412,55.7305,15886.2,1.85508
11424,55.7891,15904.4,1.85622
11436,55.8477,15921.7,1.85965
11448,55.90625,15940.3,1.86132
11460,55.9648,15957.6,1.86415
11472,56.0234,15966,1.86533
11484,56.082,15987,1.86621
11496,56.1406,15993.7,1.86999
11508,56.1992,16012.2,1.87156
11520,56.2578,16048.4,1.87377
11532,56.3164,16039.8,1.87477
11544,56.375,16077.8,1.8781
11556,56.4336,16084.3,1.87854
11568,56.4922,16100.4,1.88072
11580,56.5508,16130.3,1.88438
11592,56.6094,16140.2,1.8849
11604,56.668,16153.9,1.88676
11616,56.7266,16148.9,1.88894
11628,56.7852,16192.1,1.89166
11640,56.84375,16203,1.89337
11652,56.9023,16215.7,1.89712
11664,56.9609,16239.3,1.89766
11676,57.0195,16242.8,1.89852
11688,57.0781,16280.1,1.90092
11700,57.1367,16267.2,1.90348
11712,57.1953,16306.3,1.90368
11724,57.2539,16332.6,1.9074
11736,57.3125,16333.8,1.90709
11748,57.3711,16361.5,1.91083
11760,57.4297,16364.5,1.91265
11772,57.4883,16384.8,1.91393
11784,57.5469,16413.7,1.91689
11796,57.6055,16407.6,1.91805
11808,57.6641,16453.2,1.920032
11820,57.7227,16444,1.92283
11832,57.78125,16469.4,1.92503
11844,57.8398,16476.8,1.92574
11856,57.8984,16509.5,1.92771
11868,57.957,16529,1.93024
11880,58.0156,16524.3,1.93125
11892,58.0742,16570.8,1.93374
11904,58.1328,16569.8,1.93521
11916,58.1914,16578.4,1.93683
11928,58.25,16617.1,1.93975
11940,58.3086,16616.4,1.94086
11952,58.3672,16653.2,1.94427
11964,58.4258,16647.4,1.94498
11976,58.4844,16676.2,1.94763
11988,58.543,16692.3,1.95036
12000,58.6016,16701.8,1.95095
12012,58.6602,16727.7,1.95414
12024,58.71875,16731.7,1.955548
12036,58.7773,16755,1.95834
12048,58.8359,16771.6,1.95883
12060,58.8945,16786.9,1.96053
12072,58.9531,16807,1.96295
12084,59.0117,16823.1,1.96604
12096,59.0703,16842.5,1.96745
12108,59.1289,16845,1.96945
12120,59.1875,16882,1.97167
12132,59.2461,16903.8,1.97342
12144,59.3047,16893.5,1.974759
12156,59.3633,16929.8,1.97605
12168,59.4219,16921,1.97879
12180,59.4805,16955.4,1.98063
12192,59.5391,16966.5,1.98313
12204,59.5977,16982.1,1.9844
12216,59.65625,17010.7,1.98651
12228,59.7148,17007.9,1.98864
12240,59.7734,17033.6,1.99012
12252,59.832,17049.7,1.99231
12264,59.8906,17069.8,1.99414
12276,59.9492,17092.2,1.99682
12288,60.0078,17091.8,1.9996
12300,60.0664,17119.2,2.00059
12312,60.125,17130.3,2.00285
12324,60.1836,17142.6,2.00417
12336,60.2422,17171.1,2.00548
12348,60.3008,17187.4,2.00823
12360,60.3594,17203.7,2.01022
12372,60.418,17200.5,2.01204
12384,60.4766,17233.9,2.01363
12396,60.5352,17254.2,2.01529
12408,60.59375,17258.5,2.01858
12420,60.6523,17290,2.01971
12432,60.7109,17297.3,2.02073
12444,60.7695,17315.2,2.02361
12456,60.8281,17333.3,2.02626
12468,60.8867,17347.3,2.0281
12480,60.9453,17365.8,2.02919
12492,61.0039,17369.9,2.03078
12504,61.0625,17410.3,2.03402
12516,61.1211,17406.6,2.03548
12528,61.1797,17424.2,2.03675
12540,61.2383,17443.2,2.039377
12552,61.2969,17462.4,2.03907
12564,61.3555,17480.7,2.04263
12576,61.4141,17490.4,2.04454
12588,61.4727,17518,2.04755
12600,61.53125,17523.3,2.048559
12612,61.5898,17527.9,2.0499
12624,61.6484,17563.4,2.05249
12636,61.707,17572.2,2.0539
12648,61.7656,17600,2.05774
12660,61.8242,17600.2,2.059
12672,61.8828,17631.7,2.062402
12684,61.9414,17646.3,2.06333
12696,62.0,17645.1,2.063786
12708,62.0586,17676.5,2.06765
12720,62.1172,17691.4,2.06897
12732,62.1758,17706.9,2.07024
12744,62.2344,17729.7,2.07234
12756,62.293,17743.3,2.07308
12768,62.3516,17763.2,2.07662
12780,62.4102,17769.3,2.078589
12792,62.46875,17799.7,2.07941
12804,62.5273,17806.3,2.08159
12816,62.5859,17822,2.08392
12828,62.6445,17850,2.08642
12840,62.7031,17850.9,2.08812
12852,62.7617,17878,2.08985
12864,62.8203,17888.9,2.09193
12876,62.8789,17908.2,2.09421
12888,62.9375,17925.3,2.09659
12900,62.9961,17942.8,2.09755
12912,63.0547,17967.2,2.09911
12924,63.1133,17974.8,2.10086
12936,63.1719,17994.1,2.104
12948,63.2305,18005.2,2.10497
12960,63.2891,18029.3,2.10832
12972,63.3477,18044.9,2.111769
12984,63.40625,18056.8,2.11065
12996,63.4648,18075.3,2.11433
13008,63.5234,18091.3,2.11635
13020,63.582,18098.9,2.1173
13032,63.6406,18115.4,2.11872
13044,63.6992,18119,2.12185
13056,63.7578,18161.6,2.12378
13068,63.8164,18163,2.12645
13080,63.875,18182.3,2.12588
13092,63.9336,18213.4,2.12966
13104,63.9922,18209.7,2.12961
13116,64.0508,18250.1,2.13361
13128,64.1094,18253.5,2.13499
13140,64.168,18266.2,2.1357
13152,64.2266,18286,2.13824
13164,64.2852,18300.1,2.1397
13176,64.34375,18327.8,2.143714
13188,64.4023,18334.1,2.14457
13200,64.4609,18362.6,2.14715
13212,64.5195,18360.4,2.14941
13224,64.5781,18384.1,2.14926
13236,64.6367,18392.7,2.1521
13248,64.6953,18404.1,2.15321
13260,64.7539,18437.3,2.15632
13272,64.8125,18447.4,2.1575
13284,64.8711,18465.9,2.15918
13296,64.9297,18471.6,2.1615
13308,64.9883,18496.8,2.16451
13320,65.0469,18517,2.16578
13332,65.1055,18527.2,2.16762
13344,65.1641,18552.3,2.17071
13356,65.2227,18560.9,2.17175
13368,65.28125,18578.3,2.173955
13380,65.3398,18595.5,2.17522
13392,65.3984,18607.2,2.17799
13404,65.457,18636,2.17899
13416,65.5156,18638.3,2.1803
13428,65.5742,18671.5,2.18395
13440,65.6328,18681.8,2.18583
13452,65.6914,18696.2,2.1866
13464,65.75,18710.1,2.18921
13476,65.8086,18714.7,2.191375
13488,65.8672,18740.4,2.19466
13500,65.9258,18756,2.19548
13512,65.9844,18767.5,2.19551
13524,66.043,18799.2,2.2003
13536,66.1016,18790.4,2.20065
13548,66.1602,18832.7,2.20373
13560,66.21875,18840.6,2.20383
13572,66.2773,18859,2.20757
13584,66.3359,18858.1,2.20834
13596,66.3945,18886.7,2.21012
13608,66.4531,18910.6,2.21329
13620,66.5117,18918.7,2.21529
13632,66.5703,18937.2,2.21596
13644,66.6289,18951.3,2.2191
13656,66.6875,18963.8,2.22027
13668,66.7461,18992.7,2.2232
13680,66.8047,18996.3,2.224411
13692,66.8633,19018.9,2.22702
13704,66.9219,19026.4,2.22879
13716,66.9805,19055.6,2.229584
13728,67.0391,19073.1,2.23251
13740,67.0977,19086.2,2.23313
13752,67.15625,19101.4,2.23522
13764,67.2148,19118.8,2.23783
13776,67.2734,19136.4,2.24086
13788,67.332,19138.7,2.24262
13800,67.3906,19170.1,2.24424
13812,67.4492,19190.5,2.246583
13824,67.5078,19196.8,2.24925
13836,67.5664,19220.7,2.24907
13848,67.625,19231.2,2.25182
13860,67.6836,19238.2,2.25281
13872,67.7422,19260.5,2.25533
13884,67.8008,19276.8,2.25708
13896,67.8594,19303.4,2.26008
13908,67.918,19310.2,2.26246
13920,67.9766,19324.6,2.26393
13932,68.0352,19357.4,2.266274
13944,68.09375,19365.7,2.26693
13956,68.1523,19390.9,2.26851
13968,68.2109,19398.5,2.27334
13980,68.2695,19416.7,2.27348
13992,68.3281,19427.1,2.27552
14004,68.3867,19449.5,2.277499
14016,68.4453,19460.8,2.27972
14028,68.5039,19483,2.28195
14040,68.5625,19494,2.28492
14052,68.6211,19509.8,2.28593
14064,68.6797,19536.8,2.28831
14076,68.7383,19549.2,2.28963
14088,68.7969,19555.9,2.29145
14100,68.8555,19580.9,2.29382
14112,68.9141,19571.1,2.2958
14124,68.9727,19621.5,2.29812
14136,69.03125,19634.3,2.29819
14148,69.0898,19637.8,2.29946
14160,69.1484,19661.2,2.30317
14172,69.207,19668.7,2.30503
14184,69.2656,19695.2,2.30804
14196,69.3242,19706.4,2.3088
14208,69.3828,19715.2,2.31039
14220,69.4414,19744.3,2.31331
14232,69.5,19760.8,2.31458
14244,69.5586,19764.6,2.31588
14256,69.6172,19794,2.31781
14268,69.6758,19809.9,2.32112
14280,69.7344,19824.7,2.32253
14292,69.793,19837.2,2.32355
14304,69.8516,19857,2.32579
14316,69.9102,19874.1,2.32923
14328,69.96875,19887.9,2.33054
14340,70.0273,19904.5,2.33267
14352,70.0859,19913.2,2.33339
14364,70.1445,19934.7,2.33594
14376,70.2031,19946.8,2.33801
14388,70.2617,19972.6,2.33998
14400,70.3203,19981.5,2.34143
14412,70.3789,20001.3,2.34365
14424,70.4375,20016.6,2.34559
14436,70.4961,20036,2.34917
14448,70.5547,20048.2,2.34925
14460,70.6133,20056.9,2.352423
14472,70.6719,20084.3,2.355453
14484,70.7305,20087.4,2.35604
14496,70.7891,20095.6,2.35763
14508,70.8477,20138.9,2.35977
14520,70.90625,20146.7,2.36261
14532,70.9648,20162.7,2.36442
14544,71.0234,20180.5,2.36571
14556,71.082,20192.6,2.3658
14568,71.1406,20210.2,2.36873
14580,71.1992,20230.7,2.37061
14592,71.2578,20245.8,2.3744
14604,71.3164,20260.2,2.37553
14616,71.375,20280.3,2.377624
14628,71.4336,20283,2.37787
14640,71.4922,20310.6,2.382293
14652,71.5508,20329.8,2.3842
14664,71.6094,20329.7,2.38549
14676,71.668,20357.9,2.38703
14688,71.7266,20386.8,2.38823
14700,71.7852,20385.8,2.391408
14712,71.84375,20407.4,2.3926
14724,71.9023,20432.2,2.393981
14736,71.9609,20441.2,2.39609
14748,72.0195,20459.3,2.3982
14760,72.0781,20477.5,2.40033
14772,72.1367,20490.6,2.402431
14784,72.1953,20493.9,2.40561
14796,72.2539,20528.3,2.40593
14808,72.3125,20531,2.408618
14820,72.3711,20554.8,2.41063
14832,72.4297,20575.5,2.41227
14844,72.4883,20580.3,2.41372
14856,72.5469,20606.6,2.41662
14868,72.6055,20628.4,2.41977
14880,72.6641,20621.3,2.41944
14892,72.7227,20645.9,2.42239
14904,72.78125,20668.8,2.42468
14916,72.8398,20693.9,2.42686
14928,72.8984,20706.2,2.42995
14940,72.957,20703.2,2.42864
14952,73.0156,20737.2,2.4321
14964,73.0742,20750.6,2.43317
14976,73.1328,20768.3,2.4349
14988,73.1914,20781.4,2.43776
15000,73.25,20807.2,2.4403
15012,73.3086,20814.4,2.44058
15024,73.3672,20834.5,2.443644
15036,73.4258,20847.5,2.44667
15048,73.4844,20861.5,2.44753
15060,73.543,20885.7,2.45012
15072,73.6016,20886.1,2.45036
15084,73.6602,20917.7,2.4531
15096,73.71875,20927.9,2.4555
15108,73.7773,20938.7,2.45707
15120,73.8359,20970.5,2.45997
15132,73.8945,20983.5,2.46256
15144,73.9531,21003.7,2.46452
15156,74.0117,21007.9,2.46511
15168,74.0703,21033,2.4683
15180,74.1289,21048.9,2.46996
15192,74.1875,21049.1,2.47155
15204,74.2461,21079.9,2.4737
15216,74.3047,21074.9,2.475
15228,74.3633,21123.9,2.47797
15240,74.4219,21129.5,2.47974
15252,74.4805,21139.3,2.48166
15264,74.5391,21159.8,2.48259
15276,74.5977,21157.7,2.484983
15288,74.65625,21193.5,2.48734
15300,74.7148,21210.2,2.48779
15312,74.7734,21224,2.48999
15324,74.832,21230.1,2.49223
15336,74.8906,21255.6,2.49462
15348,74.9492,21278.9,2.49694
15360,75.0078,21283.1,2.4984
15372,75.0664,21302.3,2.5005
15384,75.125,21330.2,2.50241
15396,75.1836,21340.7,2.50413
15408,75.2422,21356.9,2.50601
15420,75.3008,21359.5,2.50902
15432,75.3594,21390.4,2.509629
15444,75.418,21400.8,2.51356
15456,75.4766,21416.6,2.51377
15468,75.5352,21426.1,2.51615
15480,75.59375,21448.5,2.51884
15492,75.6523,21467.5,2.5211
15504,75.7109,21463.1,2.52255
15516,75.7695,21475,2.5222
15528,75.8281,21521.4,2.52494
15540,75.8867,21520.4,2.52809
15552,75.9453,21535,2.52945
15564,76.0039,21568.2,2.53184
15576,76.0625,21579.7,2.53391
15588,76.1211,21595.7,2.5364
15600,76.1797,21612.1,2.53755
15612,76.2383,21628,2.539516
15624,76.2969,21621.3,2.54171
15636,76.3555,21666.8,2.54363
15648,76.4141,21673.1,2.54782
15660,76.4727,21682.2,2.545399
15672,76.53125,21708.1,2.550884
15684,76.5898,21721.9,2.55087
15696,76.6484,21745.9,2.55389
15708,76.707,21743.1,2.55623
15720,76.7656,21767.4,2.55758
15732,76.8242,21797.1,2.55985
15744,76.8828,21810.9,2.56135
15756,76.9414,21814,2.56311
15768,77.0,21829.7,2.56597
15780,77.0586,21855.1,2.56634
15792,77.1172,21873,2.5701
15804,77.1758,21884.1,2.57116
15816,77.2344,21896.5,2.57237
15828,77.293,21902.8,2.57526
15840,77.3516,21936.8,2.57707
15852,77.4102,21942.4,2.58032
15864,77.46875,21965.7,2.58119
15876,77.5273,21982.1,2.5828
15888,77.5859,21997.6,2.584501
15900,77.6445,22018.6,2.58613
15912,77.7031,22027,2.5882
15924,77.7617,22043.2,2.58917
15936,77.8203,22062.1,2.59296
15948,77.8789,22076.2,2.59499
15960,77.9375,22099.6,2.59594
15972,77.9961,22113.2,2.599313
15984,78.0547,22123.7,2.59961
15996,78.1133,22142.1,2.60163
16008,78.1719,22158.6,2.60213
16020,78.2305,22168.6,2.60437
16032,78.2891,22194.1,2.60752
16044,78.3477,22185.2,2.60919
16056,78.40625,22214.7,2.61207
16068,78.4648,22241.3,2.61414
16080,78.5234,22252.1,2.61561
16092,78.582,22264.8,2.616869
16104,78.6406,22285.6,2.61907
16116,78.6992,22290.3,2.62145
16128,78.7578,22319.3,2.62385
16140,78.8164,22338.1,2.62504
16152,78.875,22345.4,2.62643
16164,78.9336,22364,2.629
16176,78.9922,22382.5,2.63116
16188,79.0508,22400.7,2.6329
16200,79.1094,22424.9,2.63566
16212,79.168,22415.4,2.63595
16224,79.2266,22445.2,2.63913
16236,79.2852,22457.9,2.6403
16248,79.34375,22476.9,2.64436
16260,79.4023,22489.6,2.64467
16272,79.4609,22516.3,2.64673
16284,79.5195,22525.9,2.64885
16296,79.5781,22543.9,2.65143
16308,79.6367,22545.7,2.65175
16320,79.6953,22551.6,2.65412
16332,79.7539,22579.9,2.65775
16344,79.8125,22604.9,2.6592
16356,79.8711,22601.6,2.65937
16368,79.9297,22643,2.66286
16380,79.9883,22650.1,2.66399
16392,80.0469,22669.1,2.66435
16404,80.1055,22681.1,2.66878
16416,80.1641,22686.7,2.66943
16428,80.2227,22729.4,2.6728
16440,80.28125,22731.6,2.67494
16452,80.3398,22743.6,2.67505
16464,80.3984,22771.3,2.67884
16476,80.457,22786.4,2.68059
16488,80.5156,22793.1,2.68242
16500,80.5742,22811.2,2.6838
16512,80.6328,22827.8,2.68543
16524,80.6914,22844.6,2.68715
16536,80.75,22866.7,2.68975
16548,80.8086,22876.1,2.69216
16560,80.8672,22890.5,2.69362
16572,80.9258,22907.5,2.694814
16584,80.9844,22920,2.69757
16596,81.043,22943.3,2.69916
16608,81.1016,22946.9,2.70161
16620,81.1602,22971.1,2.703449
16632,81.21875,22995.1,2.706048
16644,81.2773,23001.1,2.70672
16656,81.3359,23020.2,2.70919
16668,81.3945,23034.3,2.71205
16680,81.4531,23044.5,2.71246
16692,81.5117,23070.7,2.715847
16704,81.5703,23070.1,2.71576
16716,81.6289,23080.1,2.71959
16728,81.6875,23113.2,2.7204
16740,81.7461,23121.9,2.72207
16752,81.8047,23143.4,2.72393
16764,81.8633,23147.5,2.72636
16776,81.9219,23174.9,2.7282
16788,81.9805,23187.9,2.73085
16800,82.0391,23210.7,2.7326
16812,82.0977,23195.1,2.73438
16824,82.15625,23235.4,2.737016
16836,82.2148,23255.3,2.7391
16848,82.2734,23267.3,2.74023
16860,82.332,23282,2.741616
16872,82.3906,23300.3,2.74556
16884,82.4492,23308.2,2.74518
16896,82.5078,23340.6,2.74848
16908,82.5664,23346.1,2.75052
16920,82.625,23367.5,2.75238
16932,82.6836,23378.2,2.754452
16944,82.7422,23392.9,2.7549
16956,82.8008,23411.4,2.75933
16968,82.8594,23421.5,2.75973
16980,82.918,23436.2,2.7619
16992,82.9766,23455.3,2.76365
17004,83.0352,23470.2,2.76549
17016,83.09375,23484.3,2.76793
17028,83.1523,23488.2,2.76841
17040,83.2109,23523.2,2.77255
17052,83.2695,23514.1,2.7714
17064,83.3281,23551.2,2.77504
17076,83.3867,23558.2,2.77829
17088,83.4453,23578.2,2.77905
17100,83.5039,23591,2.78077
17112,83.5625,23607.7,2.78225
17124,83.6211,23633,2.78561
17136,83.6797,23641,2.78787
17148,83.7383,23664.7,2.78967
17160,83.7969,23663,2.79189
17172,83.8555,23687.8,2.79286
17184,83.9141,23709.2,2.79456
17196,83.9727,23713.2,2.79678
17208,84.03125,23730.5,2.79805
17220,84.0898,23748.4,2.80033
17232,84.1484,23777.4,2.80277
17244,84.207,23780.1,2.8052
17256,84.2656,23787.9,2.80566
17263,84.2998,-5770.45,3.04221