File: ASM109_2021_data/MTS/UD/MTS_UD_4.csv
,Time [s],Load [N],Displacement [mm]
0,0.0078125,-274.267,0.00242472
13,0.0712891,-262.309,-0.00102505
26,0.134766,-207.99,0.00437334
39,0.198242,-245.836,0.00466123
52,0.261719,-163.133,0.00717849
65,0.325195,-161.861,0.00886425
78,0.388672,-125.931,0.0113243
91,0.452148,-106.726,0.0123797
104,0.515625,-77.4736,0.017454
117,0.579102,-86.8199,0.0180021
130,0.642578,-39.6197,0.0199091
143,0.706055,-31.8051,0.0206043
156,0.769531,-9.41483,0.02321
169,0.833008,29.4298,0.0269705
182,0.896484,28.9096,0.027447
195,0.959961,80.7149,0.0307998
208,1.02344,89.9646,0.0314985
221,1.08691,115.933,0.0337784
234,1.15039,127.622,0.0378706
247,1.21387,156.799,0.0394271
260,1.27734,149.364,0.0407821
273,1.34082,208.548,0.0433213
286,1.4043,215.644,0.0440294
299,1.46777,233.957,0.0469753
312,1.53125,274.675,0.05024448
325,1.59473,254.339,0.0500894
338,1.6582,315.988,0.0535105
351,1.72168,331.49,0.0572424
364,1.78516,340.942,0.05717352
377,1.84863,366.053,0.0609541
390,1.91211,395.633,0.0626805
403,1.97559,426.445,0.0638245
416,2.03906,450.077,0.0658053
429,2.10254,468.682,0.067758
442,2.16602,473.048,0.0698765
455,2.22949,522.073,0.0721952
468,2.29297,509.017,0.0736007
481,2.35645,549.718,0.0775306
494,2.41992,579.455,0.0785798
507,2.4834,594.961,0.0811565
520,2.546875,630.101,0.0824176
533,2.61035,637.495,0.0851807
546,2.67383,667.061,0.08724913
559,2.7373,686.738,0.0892071
572,2.80078,720.139,0.09100914
585,2.86426,701.739,0.0930342
598,2.92773,759.771,0.0966963
611,2.99121,760.605,0.0974987
624,3.05469,792.935,0.0994773
637,3.11816,821.521,0.10167
650,3.18164,837.217,0.104588
663,3.24512,867.85,0.107309
676,3.30859,887.243,0.107164
689,3.37207,887.055,0.111474
702,3.43555,928.911,0.112009
715,3.49902,958.814,0.115258
728,3.5625,967.609,0.117363
741,3.62598,1008.5,0.11913
754,3.68945,997.977,0.122084
767,3.75293,1035.03,0.123166
780,3.81641,1069.42,0.126454
793,3.87988,1078.99,0.126183
806,3.94336,1111.47,0.130198
819,4.00684,1091.04,0.130485
832,4.07031,1149.16,0.132761
845,4.13379,1170.93,0.133955
858,4.19727,1187.59,0.136916
871,4.26074,1198.31,0.1409255
884,4.32422,1242.01,0.142508
897,4.3877,1235.74,0.1435487
910,4.45117,1271.88,0.145357
923,4.51465,1308.51,0.148868
936,4.578125,1278.12,0.148084
949,4.6416,1337.34,0.152497
962,4.70508,1340.53,0.152932
975,4.76855,1395.95,0.156976
988,4.83203,1392.96,0.159711
1001,4.89551,1431.85,0.159971
1014,4.95898,1439.82,0.161693
1027,5.02246,1479.02,0.16448
1040,5.08594,1499.44,0.166153
1053,5.14941,1507.45,0.168535
1066,5.21289,1546.85,0.171808
1079,5.27637,1533.57,0.17349
1092,5.33984,1594.24,0.17704
1105,5.40332,1597.28,0.176778
1118,5.4668,1623.7,0.178986
1131,5.53027,1644.91,0.183453
1144,5.59375,1670.7,0.183489
1157,5.65723,1692.68,0.1864703
1170,5.7207,1715.68,0.188319
1183,5.78418,1735.32,0.190962
1196,5.84766,1746.61,0.191195
1209,5.91113,1786.34,0.194999
1222,5.97461,1789.03,0.196887
1235,6.03809,1817.99,0.2001
1248,6.10156,1838.33,0.199147
1261,6.16504,1873.91,0.202789
1274,6.22852,1886.66,0.205749
1287,6.29199,1913.96,0.207558
1300,6.35547,1945.6,0.209682
1313,6.41895,1948.08,0.209925
1326,6.48242,1974.85,0.213127
1339,6.5459,1999.78,0.21606
1352,6.609375,2027.85,0.216939
1365,6.67285,2040.36,0.219533
1378,6.73633,2077.75,0.223305
1391,6.7998,2081.04,0.223927
1404,6.86328,2099.82,0.225626
1417,6.92676,2133.71,0.227562
1430,6.99023,2127.11,0.229564
1443,7.05371,2187.03,0.233922
1456,7.11719,2196.17,0.234028
1469,7.18066,2206.72,0.235277
1482,7.24414,2234.49,0.240575
1495,7.30762,2277.9,0.243303
1508,7.37109,2276.6,0.24192
1521,7.43457,2307.46,0.245378
1534,7.49805,2323.78,0.246125
1547,7.56152,2348.52,0.249087
1560,7.625,2378.42,0.252564
1573,7.68848,2374.65,0.2520369
1586,7.75195,2416.9,0.256797
1599,7.81543,2436,0.256992
1612,7.87891,2467.89,0.260294
1625,7.94238,2480.45,0.26271
1638,8.00586,2513.27,0.2631779
1651,8.06934,2518,0.26657
1664,8.13281,2555.36,0.268323
1677,8.19629,2568.4,0.270282
1690,8.25977,2583.18,0.27189
1703,8.32324,2617.15,0.276259
1716,8.38672,2599.01,0.275789
1729,8.4502,2658.15,0.280046
1742,8.51367,2678.96,0.280083
1755,8.57715,2703.89,0.283004
1768,8.640625,2732.22,0.285443
1781,8.7041,2722.37,0.285644
1794,8.76758,2755.22,0.289493
1807,8.83105,2785.95,0.292243
1820,8.89453,2821.57,0.29287
1833,8.95801,2813.46,0.295631
1846,9.02148,2855.38,0.297874
1859,9.08496,2828.3,0.299756
1872,9.14844,2899.22,0.30242
1885,9.21191,2918.15,0.303853
1898,9.27539,2933.09,0.305777
1911,9.33887,2964.72,0.309885
1924,9.40234,2968.17,0.308291
1937,9.46582,3006.42,0.313019
1950,9.5293,3018.84,0.313932
1963,9.59277,3063.73,0.317579
1976,9.65625,3063.41,0.318651
1989,9.71973,3090.48,0.320918
2002,9.7832,3063.03,0.321554
2015,9.84668,3139.53,0.32631
2028,9.91016,3158.16,0.326874
2041,9.97363,3171.72,0.329302
2054,10.0371,3214.41,0.33182
2067,10.1006,3183.38,0.332547
2080,10.1641,3255.92,0.336729
2093,10.2275,3252.38,0.337518
2106,10.291,3278.82,0.340129
2119,10.3545,3312.6,0.341759
2132,10.418,3326.16,0.345709
2145,10.4814,3335.85,0.3454493
2158,10.5449,3373.55,0.348974
2171,10.6084,3384.09,0.35117
2184,10.6719,3419.72,0.352573
2197,10.7354,3454.14,0.356963
2210,10.7988,3457.05,0.357515
2223,10.8623,3485.21,0.359563
2236,10.9258,3510.03,0.362373
2249,10.9893,3532.63,0.362558
2262,11.0527,3531.45,0.365977
2275,11.1162,3577.65,0.3688015
2288,11.1797,3581.65,0.369295
2301,11.2432,3625.57,0.371899
2314,11.3066,3644.18,0.375165
2327,11.3701,3646.96,0.376423
2340,11.4336,3687.58,0.379719
2353,11.4971,3685.32,0.379646
2366,11.5605,3730.69,0.384156
2379,11.624,3753.94,0.385471
2392,11.6875,3768.68,0.386915
2405,11.751,3797.67,0.388972
2418,11.8145,3815.54,0.391041
2431,11.8779,3827.62,0.3935878
2444,11.9414,3863.54,0.39539
2457,12.0049,3891.44,0.398523
2470,12.0684,3880.39,0.39836
2483,12.1318,3931.52,0.402563
2496,12.1953,3917.06,0.4026787
2509,12.2588,3966.18,0.406306
2522,12.3223,3988.98,0.408836
2535,12.3857,4000.8,0.409702
2548,12.4492,4026.4,0.412128
2561,12.5127,4045.58,0.412549
2574,12.5762,4066.27,0.417045
2587,12.6396,4102.35,0.41865
2600,12.7031,4126.13,0.420443
2613,12.7666,4121.06,0.422793
2626,12.8301,4165.9,0.4259254
2639,12.8936,4168.91,0.426367
2652,12.957,4202.44,0.428639
2665,13.0205,4217.94,0.432091
2678,13.084,4230.53,0.431934
2691,13.1475,4284.35,0.43698
2704,13.2109,4269.49,0.437078
2717,13.2744,4319.27,0.440003
2730,13.3379,4331.9,0.442523
2743,13.4014,4356.12,0.444861
2756,13.4648,4378.92,0.446163
2769,13.52832,4404.16,0.44766
2782,13.5918,4399.64,0.451095
2795,13.6553,4447.61,0.453151
2808,13.71875,4468.63,0.455693
2821,13.7822,4477.34,0.456907
2834,13.8457,4520.03,0.460318
2847,13.90918,4528.99,0.461453
2860,13.9727,4559.83,0.463604
2873,14.0361,4567.86,0.466025
2886,14.0996,4605.39,0.467954
2899,14.1631,4596.82,0.470659
2912,14.2266,4652.25,0.473443
2925,14.29,4663.25,0.474523
2938,14.3535,4678.1,0.474917
2951,14.417,4725.95,0.479552
2964,14.4805,4686.04,0.479414
2977,14.5439,4758.91,0.483738
2990,14.6074,4748.78,0.484395
3003,14.6709,4785.23,0.486931
3016,14.7344,4818.4,0.488349
3029,14.7979,4839.58,0.490475
3042,14.8613,4858.07,0.492233
3055,14.9248,4880.08,0.49541
3068,14.9883,4902.99,0.497193
3081,15.0518,4912.76,0.4993026
3094,15.1152,4952.09,0.500393
3107,15.1787,4934.8,0.503264
3120,15.2422,5001.09,0.5073626
3133,15.3057,5001.56,0.5068655
3146,15.3691,5040.24,0.509856
3159,15.4326,5050.52,0.5118
3172,15.4961,5043.31,0.512781
3185,15.55957,5102.34,0.517276
3198,15.623,5100.78,0.51669
3211,15.6865,5145.72,0.521049
3224,15.75,5150.91,0.522615
3237,15.8135,5192.67,0.525549
3250,15.877,5187.21,0.52603
3263,15.94043,5235.08,0.53131
3276,16.0039,5249.77,0.5310421
3289,16.0674,5267.43,0.533523
3302,16.1309,5292.9,0.534708
3315,16.1943,5288.01,0.536404
3328,16.2578,5341.79,0.541246
3341,16.3213,5340.47,0.542195
3354,16.3848,5374.55,0.542462
3367,16.4482,5382,0.545518
3380,16.5117,5427.37,0.547659
3393,16.5752,5405.84,0.549534
3406,16.6387,5467.18,0.553135
3419,16.7021,5494.41,0.555168
3432,16.7656,5480.45,0.5556978
3445,16.8291,5541.24,0.55786
3458,16.8926,5513.43,0.559988
3471,16.9561,5582.39,0.562617
3484,17.0195,5581.07,0.562439
3497,17.083,5611.11,0.566119
3510,17.1465,5629.13,0.569225
3523,17.21,5667.7,0.573142
3536,17.2734,5655.08,0.573597
3549,17.3369,5703.27,0.576653
3562,17.4004,5715.64,0.578346
3575,17.4639,5741.9,0.580498
3588,17.5273,5775.13,0.582503
3601,17.59082,5758.68,0.583476
3614,17.6543,5810.47,0.586195
3627,17.7178,5824.1,0.587424
3640,17.78125,5849.3,0.59021
3653,17.8447,5878.33,0.591893
3666,17.9082,5879.28,0.594761
3679,17.97168,5908.69,0.596509
3692,18.0352,5939.43,0.598388
3705,18.0986,5964.27,0.601944
3718,18.1621,5964.7,0.603044
3731,18.2256,6009.76,0.605734
3744,18.2891,5997.52,0.606041
3757,18.3525,6053.07,0.60912
3770,18.416,6072.99,0.612402
3783,18.4795,6063.99,0.611894
3796,18.543,6103.82,0.615375
3809,18.6064,6117.82,0.616124
3822,18.6699,6157.23,0.620226
3835,18.7334,6169.54,0.621546
3848,18.7969,6203.26,0.6256
3861,18.8604,6197.96,0.626442
3874,18.9238,6236.09,0.628556
3887,18.9873,6233.91,0.630916
3900,19.0508,6282.9,0.63296
3913,19.1143,6299.22,0.6349026
3926,19.1777,6312.76,0.636671
3939,19.2412,6355.21,0.639708
3952,19.3047,6361.67,0.639849
3965,19.3682,6387.03,0.6439997
3978,19.4316,6403.69,0.6446166
3991,19.4951,6431.35,0.648061
4004,19.5586,6440.83,0.649105
4017,19.62207,6475.22,0.650622
4030,19.6855,6466.6,0.654238
4043,19.749,6525.05,0.656787
4056,19.8125,6547.95,0.659894
4069,19.876,6551.79,0.658368
4082,19.9395,6590.17,0.663556
4095,20.00293,6581.84,0.662316
4108,20.0664,6641.76,0.665548
4121,20.1299,6647.13,0.668892
4134,20.1934,6664.43,0.67146
4147,20.2568,6679.86,0.674548
4160,20.3203,6711.33,0.676036
4173,20.3838,6718.63,0.676008
4186,20.4473,6742.17,0.6798054
4199,20.5107,6770.29,0.68203
4212,20.5742,6768.03,0.681037
4225,20.6377,6819.62,0.686076
4238,20.7012,6809.22,0.68818
4251,20.7646,6865.63,0.690182
4264,20.8281,6876.77,0.69118
4277,20.8916,6904.42,0.693546
4290,20.9551,6917.5,0.697135
4303,21.0186,6928.45,0.69482
4316,21.082,6964.02,0.699744
4329,21.1455,6982.22,0.702382
4342,21.209,7014.94,0.7052927
4355,21.2725,7018.11,0.706986
4368,21.3359,7062.65,0.7095
4381,21.3994,7059.86,0.71081
4394,21.4629,7097.13,0.712426
4407,21.5264,7111.18,0.7175709
4420,21.5898,7120.25,0.715326
4433,21.65332,7158.64,0.718668
4446,21.7168,7184.73,0.721127
4459,21.7803,7197.7,0.723424
4472,21.84375,7228.29,0.725483
4485,21.9072,7252.29,0.728654
4498,21.9707,7232.95,0.730075
4511,22.03418,7298.68,0.731377
4524,22.0977,7301.7,0.733841
4537,22.1611,7321.63,0.734582
4550,22.2246,7360.34,0.73956
4563,22.2881,7336.23,0.740076
4576,22.3516,7405.96,0.741292
4589,22.415,7412.43,0.7427175
4602,22.4785,7436.62,0.747234
4615,22.542,7447.39,0.748433
4628,22.6055,7486.86,0.750553
4641,22.6689,7483.44,0.75262
4654,22.7324,7526.08,0.755096
4667,22.7959,7538.72,0.7571156
4680,22.8594,7564.05,0.759432
4693,22.9229,7596.48,0.7627089
4706,22.9863,7575.64,0.763515
4719,23.0498,7642.12,0.766205
4732,23.1133,7644.1,0.767372
4745,23.1768,7649.52,0.77027
4758,23.2402,7688.35,0.771719
4771,23.3037,7720.83,0.77494
4784,23.3672,7718.13,0.775791
4797,23.4307,7760.76,0.778604
4810,23.4941,7771.71,0.779548
4823,23.5576,7799.54,0.783104
4836,23.6211,7829.38,0.785457
4849,23.68457,7817.28,0.785682
4862,23.748,7882.22,0.791059
4875,23.8115,7856.06,0.789981
4888,23.875,7907.6,0.791327
4901,23.9385,7936.33,0.796074
4914,24.002,7939.13,0.796892
4927,24.06543,7965.74,0.800237
4940,24.1289,7996.26,0.803101
4953,24.1924,8017.45,0.803843
4966,24.2559,8031.11,0.803493
4979,24.3193,8056.53,0.808276
4992,24.3828,8067.51,0.809512
5005,24.4463,8100.87,0.812518
5018,24.5098,8122.77,0.81538
5031,24.5732,8141.46,0.816927
5044,24.6367,8167.13,0.818358
5057,24.7002,8170.84,0.818902
5070,24.7637,8195.86,0.822587
5083,24.8271,8205.32,0.824723
5096,24.8906,8258.04,0.8273654
5109,24.9541,8266.69,0.829201
5122,25.0176,8277.31,0.832173
5135,25.0811,8280.09,0.833523
5148,25.1445,8340.86,0.835914
5161,25.208,8364.12,0.839037
5174,25.2715,8366.34,0.840115
5187,25.335,8404.2,0.843943
5200,25.3984,8405.56,0.842782
5213,25.4619,8442.86,0.847092
5226,25.5254,8466.77,0.849091
5239,25.5889,8485.25,0.849414
5252,25.6523,8497.14,0.852254
5265,25.71582,8529.06,0.854931
5278,25.7793,8540.45,0.856701
5291,25.8428,8575.08,0.859647
5304,25.90625,8592.06,0.862288
5317,25.9697,8601.76,0.86259
5330,26.0332,8644.88,0.865982
5343,26.09668,8631.6,0.866731
5356,26.1602,8680.61,0.8692
5369,26.2236,8690.85,0.873314
5382,26.2871,8713.6,0.873661
5395,26.3506,8737.27,0.875465
5408,26.4141,8759.79,0.878598
5421,26.4775,8765.67,0.880274
5434,26.541,8804.86,0.883254
5447,26.6045,8832.52,0.885094
5460,26.668,8829.14,0.885654
5473,26.7314,8879.11,0.889498
5486,26.7949,8862.71,0.891041
5499,26.8584,8915,0.892747
5512,26.9219,8915.42,0.894645
5525,26.9854,8951.13,0.897041
5538,27.0488,8976.73,0.899623
5551,27.1123,8996.46,0.901534
5564,27.1758,9017.65,0.904851
5577,27.2393,9034.93,0.904969
5590,27.3027,9066.31,0.908974
5603,27.3662,9070.74,0.909769
5616,27.4297,9122.8,0.912859
5629,27.4932,9111.68,0.913585
5642,27.5566,9146.98,0.916242
5655,27.6201,9157.9,0.918046
5668,27.6836,9183.93,0.919089
5681,27.74707,9212.62,0.923027
5694,27.8105,9214.07,0.923046
5707,27.874,9249.18,0.926245
5720,27.9375,9257.26,0.9276675
5733,28.001,9295.3,0.930721
5746,28.0645,9294.76,0.93251
5759,28.12793,9341.57,0.936412
5772,28.1914,9334.58,0.936255
5785,28.2549,9376.49,0.938774
5798,28.3184,9396.55,0.942453
5811,28.3818,9415.29,0.94232
5824,28.4453,9448.42,0.946643
5837,28.5088,9430.47,0.946398
5850,28.5723,9492.06,0.951055
5863,28.6357,9492.2,0.953383
5876,28.6992,9534.02,0.953418
5889,28.7627,9547.09,0.957713
5902,28.8262,9579.93,0.959597
5915,28.8896,9591.86,0.960657
5928,28.9531,9612.82,0.962405
5941,29.0166,9637.33,0.96649
5954,29.0801,9628.47,0.965613
5967,29.1436,9690.85,0.9696995
5980,29.207,9685.43,0.969461
5993,29.2705,9712.65,0.973503
6006,29.334,9730.46,0.974155
6019,29.3975,9761.54,0.977185
6032,29.4609,9785.64,0.980613
6045,29.5244,9804.02,0.981255
6058,29.5879,9812.58,0.982931
6071,29.6514,9835.68,0.985314
6084,29.7148,9882.94,0.988953
6097,29.77832,9865.18,0.988968
6110,29.8418,9917.71,0.994454
6123,29.9053,9927.55,0.994037
6136,29.96875,9953.96,0.997797
6149,30.0322,9974.83,0.9990741
6162,30.0957,9990.85,1.001649
6175,30.15918,10018.5,1.00309
6188,30.2227,10035.1,1.00423
6201,30.2861,10054.5,1.00871
6214,30.3496,10072.7,1.00936
6227,30.4131,10106.3,1.01169
6240,30.4766,10100.3,1.01345
6253,30.54,10147.6,1.01631
6266,30.6035,10164.7,1.01845
6279,30.667,10183.1,1.02043
6292,30.7305,10203.5,1.02141
6305,30.7939,10220.1,1.02327
6318,30.8574,10251,1.02854
6331,30.9209,10247.6,1.02695
6344,30.9844,10296.4,1.03005
6357,31.0479,10304.8,1.03293
6370,31.1113,10330.7,1.03474
6383,31.1748,10328.1,1.03577
6396,31.2383,10386.7,1.03913
6409,31.3018,10398.6,1.04251
6422,31.3652,10416.2,1.04327
6435,31.4287,10425.5,1.04523
6448,31.4922,10446.6,1.04471
6461,31.5557,10484.2,1.05017
6474,31.6191,10488.6,1.051978
6487,31.6826,10514.5,1.05184
6500,31.7461,10522.7,1.05493
6513,31.80957,10564.3,1.05791
6526,31.873,10571.8,1.05976
6539,31.9365,10594.9,1.06336
6552,32.0,10630.9,1.06374
6565,32.0635,10642.7,1.06425
6578,32.127,10676,1.06817
6591,32.19043,10651.4,1.06903
6604,32.2539,10721.3,1.07271
6617,32.3174,10731,1.07373
6630,32.3809,10750.5,1.077071
6643,32.4443,10763.1,1.07935
6656,32.5078,10805.8,1.08134
6669,32.5713,10809.1,1.08323
6682,32.6348,10835,1.08511
6695,32.6982,10869.7,1.088009
6708,32.7617,10872.2,1.08759
6721,32.8252,10907.5,1.09147
6734,32.8887,10901.5,1.09368
6747,32.9521,10936.4,1.09642
6760,33.0156,10966.3,1.09793
6773,33.0791,10969.5,1.09967
6786,33.1426,11003.2,1.10227
6799,33.2061,11037.9,1.10446
6812,33.2695,11057.4,1.10577
6825,33.333,11069.8,1.10744
6838,33.3965,11088.5,1.11125
6851,33.46,11107.8,1.11187
6864,33.5234,11137.8,1.11585
6877,33.5869,11116.7,1.11664
6890,33.6504,11173.4,1.11915
6903,33.7139,11200.3,1.12318
6916,33.7773,11219.8,1.12351
6929,33.84082,11240.2,1.1244
6942,33.9043,11242.2,1.1282
6955,33.9678,11280.6,1.130953
6968,34.03125,11289.7,1.13109
6981,34.0947,11329.9,1.1334
6994,34.1582,11335.5,1.135502
7007,34.22168,11373.1,1.13945
7020,34.2852,11364.2,1.14073
7033,34.3486,11420.7,1.14262
7046,34.4121,11440.5,1.14525
7059,34.4756,11426.1,1.14625
7072,34.5391,11474.9,1.14966
7085,34.6025,11471.7,1.14935
7098,34.666,11513.4,1.15252
7111,34.7295,11533.2,1.15528
7124,34.793,11550.6,1.1566
7137,34.8564,11562.9,1.15924
7150,34.9199,11601.6,1.16266
7163,34.9834,11582.6,1.16384
7176,35.0469,11640.2,1.16512
7189,35.1104,11670.7,1.16877
7202,35.1738,11651.2,1.169
7215,35.2373,11713.7,1.17393
7228,35.3008,11710.7,1.17252
7241,35.3643,11753.3,1.17721
7254,35.4277,11753.9,1.17891
7267,35.4912,11786.2,1.18054
7280,35.5547,11801.4,1.18176
7293,35.6182,11840.3,1.18429
7306,35.6816,11836.7,1.1873
7319,35.7451,11873,1.1892
7332,35.8086,11901.1,1.18973
7345,35.87207,11882.9,1.19289
7358,35.9355,11936.2,1.19789
7371,35.999,11941.2,1.19698
7384,36.0625,11982.9,1.198669
7397,36.126,11991.1,1.20142
7410,36.1895,12015.8,1.2026
7423,36.25293,12037.8,1.20615
7436,36.3164,12061.7,1.20771
7449,36.3799,12087.1,1.21004
7462,36.4434,12097,1.21284
7475,36.5068,12126.5,1.214342
7488,36.5703,12112.8,1.21683
7501,36.6338,12171.9,1.21917
7514,36.6973,12176,1.22062
7527,36.7607,12195.5,1.2218
7540,36.8242,12215.5,1.22629
7553,36.8877,12251.7,1.22666
7566,36.9512,12279.2,1.22995
7579,37.0146,12262.6,1.23044
7592,37.0781,12308.5,1.23249
7605,37.1416,12317.5,1.234944
7618,37.2051,12368.4,1.23785
7631,37.2686,12366.6,1.23978
7644,37.332,12404.8,1.24152
7657,37.3955,12417.2,1.24451
7670,37.459,12428.3,1.24535
7683,37.5225,12468.7,1.24933
7696,37.5859,12435.4,1.24923
7709,37.6494,12508,1.25347
7722,37.7129,12500.5,1.25481
7735,37.7764,12548,1.257556
7748,37.8398,12566.9,1.25915
7761,37.90332,12590.7,1.25988
7774,37.9668,12594.8,1.26448
7787,38.0303,12641,1.26501
7800,38.09375,12644.3,1.26721
7813,38.1572,12673.3,1.26924
7826,38.2207,12698.3,1.27178
7839,38.28418,12682.7,1.27467
7852,38.3477,12744.4,1.27572
7865,38.4111,12730.9,1.27671
7878,38.4746,12754,1.28
7891,38.5381,12803.6,1.28267
7904,38.6016,12818.2,1.28335
7917,38.665,12824.4,1.28757
7930,38.7285,12861.6,1.28856
7943,38.792,12879.6,1.28953
7956,38.8555,12899.1,1.29217
7969,38.9189,12938.1,1.29509
7982,38.9824,12905.7,1.296245
7995,39.0459,12956.9,1.29773
8008,39.1094,12985.4,1.300794
8021,39.1729,12997.3,1.30228
8034,39.2363,13018.8,1.30672
8047,39.2998,13045.7,1.30656
8060,39.3633,13067.2,1.30885
8073,39.4268,13083.4,1.3102
8086,39.4902,13109.1,1.3151
8099,39.5537,13107.3,1.31519
8112,39.6172,13154.5,1.3161
8125,39.6807,13129.4,1.31925
8138,39.7441,13202.6,1.32312
8151,39.8076,13207.7,1.32479
8164,39.8711,13225.3,1.32429
8177,39.93457,13263.1,1.32839
8190,39.998,13245.4,1.33016
8203,40.0615,13301,1.3326
8216,40.125,13312.7,1.33491
8229,40.1885,13338.2,1.33645
8242,40.252,13360.5,1.33885
8255,40.31543,13392.8,1.34258
8268,40.3789,13379.1,1.34299
8281,40.4424,13429.2,1.3458
8294,40.5059,13443.9,1.34808
8307,40.5693,13459,1.34886
8320,40.6328,13490.1,1.352524
8333,40.6963,13499.6,1.35332
8346,40.7598,13525.2,1.35652
8359,40.8232,13549.5,1.35846
8372,40.8867,13569.2,1.36067
8385,40.9502,13592.2,1.36256
8398,41.0137,13616.2,1.366248
8411,41.0771,13615.8,1.36851
8424,41.1406,13663.8,1.36947
8437,41.2041,13677.2,1.37051
8450,41.2676,13694.1,1.372941
8463,41.3311,13730.6,1.37561
8476,41.3945,13710.3,1.37696
8489,41.458,13773.5,1.380639
8502,41.5215,13779,1.3814
8515,41.585,13804.8,1.38431
8528,41.6484,13831,1.38588
8541,41.7119,13839.8,1.38633
8554,41.7754,13868,1.39049
8567,41.8389,13896.5,1.39289
8580,41.9023,13928.8,1.39442
8593,41.96582,13919.2,1.39637
8606,42.0293,13967.4,1.39808
8619,42.0928,13930.3,1.40102
8632,42.15625,13996.8,1.4034
8645,42.2197,14013.7,1.40406
8658,42.2832,14037.8,1.40735
8671,42.34668,14074.9,1.4096
8684,42.4102,14056,1.41068
8697,42.4736,14101.8,1.41324
8710,42.5371,14112.9,1.41614
8723,42.6006,14154.5,1.41764
8736,42.6641,14155.9,1.41864
8749,42.7275,14194.9,1.42212
8762,42.791,14178.6,1.42248
8775,42.8545,14232.6,1.42647
8788,42.918,14260.8,1.427498
8801,42.9814,14246.6,1.42862
8814,43.0449,14308.8,1.43418
8827,43.1084,14275.7,1.43357
8840,43.1719,14314.6,1.43576
8853,43.2354,14351.4,1.43806
8866,43.2988,14385.4,1.44119
8879,43.3623,14391.2,1.44278
8892,43.4258,14434,1.44592
8905,43.4893,14428.8,1.44666
8918,43.5527,14451.1,1.44966
8931,43.6162,14481.8,1.45197
8944,43.6797,14483.9,1.45109
8957,43.7432,14534.4,1.45722
8970,43.8066,14524,1.45716
8983,43.8701,14562.5,1.46019
8996,43.9336,14582.9,1.46212
9009,43.99707,14615.4,1.46632
9022,44.0605,14619.9,1.46661
9035,44.124,14657,1.46933
9048,44.1875,14669.1,1.4692
9061,44.251,14697,1.47354
9074,44.3145,14716.8,1.47457
9087,44.37793,14705.1,1.47588
9100,44.4414,14760.1,1.47911
9113,44.5049,14732.9,1.47882
9126,44.5684,14794.2,1.482587
9139,44.6318,14792.4,1.48566
9152,44.6953,14823.7,1.48699
9165,44.7588,14847.3,1.48899
9178,44.8223,14869.8,1.49267
9191,44.8857,14883.6,1.49377
9204,44.9492,14902.3,1.49553
9217,45.0127,14941.4,1.49912
9230,45.0762,14936.6,1.500699
9243,45.1396,14984.3,1.50294
9256,45.2031,14990.8,1.50338
9269,45.2666,15009.9,1.50643
9282,45.3301,15024.2,1.50919
9295,45.3936,15048,1.50837
9308,45.457,15074.1,1.51393
9321,45.5205,15102.8,1.51433
9334,45.584,15122.5,1.5156
9347,45.6475,15136.3,1.51979
9360,45.7109,15168.8,1.52152
9373,45.7744,15175,1.5233
9386,45.8379,15204.9,1.52476
9399,45.9014,15213.6,1.52785
9412,45.9648,15244.5,1.52954
9425,46.02832,15278.2,1.53175
9438,46.0918,15291.9,1.53459
9451,46.1553,15316.9,1.53723
9464,46.21875,15305.8,1.53617
9477,46.2822,15355.2,1.54131
9490,46.3457,15361.2,1.54276
9503,46.40918,15389.6,1.54461
9516,46.4727,15400.1,1.54434
9529,46.5361,15440.3,1.54787
9542,46.5996,15455.1,1.55201
9555,46.6631,15470.1,1.55286
9568,46.7266,15502.2,1.55548
9581,46.79,15497.9,1.55648
9594,46.8535,15540.5,1.559199
9607,46.917,15558.5,1.55983
9620,46.9805,15582.7,1.5632
9633,47.0439,15600.2,1.56618
9646,47.1074,15619.7,1.56822
9659,47.1709,15627,1.568458
9672,47.2344,15672.8,1.57312
9685,47.2979,15688.7,1.57449
9698,47.3613,15702.1,1.57562
9711,47.4248,15743.3,1.57953
9724,47.4883,15707.9,1.5795
9737,47.5518,15773.6,1.583675
9750,47.6152,15782.7,1.58518
9763,47.6787,15811.1,1.58589
9776,47.7422,15839.2,1.58941
9789,47.8057,15839.4,1.58956
9802,47.8691,15865.1,1.59268
9815,47.9326,15891.2,1.59562
9828,47.9961,15930.4,1.59791
9841,48.05957,15923.1,1.59875
9854,48.123,15976.9,1.60243
9867,48.1865,15960.6,1.60215
9880,48.25,16000.4,1.60559
9893,48.3135,16021.1,1.608252
9906,48.377,16031.7,1.61176
9919,48.44043,16075.5,1.612752
9932,48.5039,16088.2,1.61442
9945,48.5674,16109.1,1.61772
9958,48.6309,16128,1.61794
9971,48.6943,16153.2,1.62057
9984,48.7578,16161.2,1.6226
9997,48.8213,16198.9,1.62534
10010,48.8848,16180.1,1.62643
10023,48.9482,16242.5,1.62983
10036,49.0117,16249.1,1.63111
10049,49.0752,16257.3,1.63142
10062,49.1387,16300.8,1.63523
10075,49.2021,16307.4,1.63657
10088,49.2656,16351.5,1.64008
10101,49.3291,16343.5,1.64063
10114,49.3926,16380.6,1.64455
10127,49.4561,16390.8,1.64549
10140,49.5195,16422.3,1.64707
10153,49.583,16420.5,1.65006
10166,49.6465,16470.5,1.65214
10179,49.71,16495,1.65606
10192,49.7734,16471.1,1.65611
10205,49.8369,16531.8,1.66019
10218,49.9004,16526.4,1.65979
10231,49.9639,16572.1,1.66306
10244,50.0273,16580.6,1.66419
10257,50.09082,16602.3,1.66703
10270,50.1543,16628.8,1.66977
10283,50.2178,16658.4,1.67243
10296,50.28125,16645.3,1.67288
10309,50.3447,16687,1.674584
10322,50.4082,16723,1.67932
10335,50.47168,16723.8,1.67975
10348,50.5352,16765.7,1.68294
10361,50.5986,16761.3,1.68315
10374,50.6621,16789.7,1.68607
10387,50.7256,16809.4,1.689844
10400,50.7891,16833.3,1.68959
10413,50.8525,16846.9,1.69288
10426,50.916,16880.6,1.69477
10439,50.9795,16890,1.697634
10452,51.043,16901.3,1.69819
10465,51.1064,16953,1.70234
10478,51.1699,16942.2,1.70221
10491,51.2334,16996.3,1.70556
10504,51.2969,16983.5,1.70643
10517,51.3604,17012.5,1.70928
10530,51.4238,17034.8,1.71303
10543,51.4873,17060.6,1.71358
10556,51.5508,17074.1,1.717223
10569,51.6143,17100.6,1.71715
10582,51.6777,17124.5,1.72028
10595,51.7412,17144.5,1.72302
10608,51.8047,17171.4,1.7241
10621,51.8682,17170.5,1.72682
10634,51.9316,17199.5,1.72927
10647,51.9951,17215,1.72944
10660,52.0586,17242.7,1.73269
10673,52.12207,17263.7,1.73658
10686,52.1855,17256.3,1.73706
10699,52.249,17314.8,1.74022
10712,52.3125,17308.7,1.74138
10725,52.376,17336.2,1.74404
10738,52.4395,17350.5,1.7441
10751,52.5029,17395.7,1.74721
10764,52.5664,17390.4,1.74929
10777,52.6299,17439.6,1.75237
10790,52.6934,17456,1.75585
10803,52.7568,17465,1.75654
10816,52.8203,17503.6,1.75788
10829,52.8838,17485.9,1.76015
10842,52.9473,17540.6,1.76388
10855,53.0107,17553,1.76568
10868,53.0742,17574.5,1.7667
10881,53.1377,17599.5,1.76848
10894,53.2012,17621.4,1.77116
10907,53.2646,17637.8,1.77252
10920,53.3281,17665.7,1.77424
10933,53.3916,17687.6,1.77668
10946,53.4551,17704.7,1.77899
10959,53.5186,17737.5,1.78263
10972,53.582,17735.2,1.7826
10985,53.6455,17784.8,1.7874
10998,53.709,17770.5,1.78743
11011,53.7725,17806.9,1.79091
11024,53.8359,17827.8,1.79106
11037,53.8994,17852.7,1.79433
11050,53.9629,17852.3,1.79652
11063,54.0264,17892.8,1.79886
11076,54.0898,17916.1,1.80072
11089,54.1533,17916.2,1.80158
11102,54.2168,17957.5,1.80608
11115,54.2803,17962.6,1.80555
11128,54.34375,18006,1.80818
11141,54.4072,18000.6,1.810183
11154,54.4707,18021,1.81287
11167,54.5342,18053.4,1.81621
11180,54.5977,18080.6,1.8158
11193,54.6611,18101.4,1.81958
11206,54.7246,18117.6,1.822439
11219,54.7881,18134,1.82331
11232,54.8516,18145.7,1.82584
11245,54.915,18183.8,1.82895
11258,54.9785,18181.2,1.829706
11271,55.042,18216.4,1.83295
11284,55.1055,18243.7,1.83418
11297,55.1689,18252.4,1.83436
11310,55.2324,18289.3,1.83876
11323,55.2959,18273.7,1.84025
11336,55.3594,18326.2,1.84266
11349,55.4229,18328.5,1.84393
11362,55.4863,18364.4,1.84714
11375,55.5498,18364.3,1.84919
11388,55.6133,18412.4,1.85185
11401,55.6768,18412.5,1.85257
11414,55.7402,18446.6,1.85671
11427,55.8037,18475.2,1.85797
11440,55.8672,18482.4,1.86034
11453,55.9307,18514.3,1.86391
11466,55.9941,18495.9,1.86145
11479,56.0576,18562.1,1.8661
11492,56.1211,18568.3,1.86725
11505,56.1846,18588.3,1.86827
11518,56.248,18594.8,1.87277
11531,56.3115,18641.4,1.874718
11544,56.375,18652,1.87583
11557,56.4385,18682.3,1.88004
11570,56.502,18689.1,1.88013
11583,56.5654,18701.3,1.88274
11596,56.6289,18742.9,1.886196
11609,56.6924,18729.8,1.88544
11622,56.7559,18771.6,1.88941
11635,56.8193,18791.5,1.89045
11648,56.8828,18812.4,1.89239
11661,56.9463,18833.3,1.89707
11674,57.0098,18846.7,1.89751
11687,57.0732,18884.7,1.89932
11700,57.1367,18902.7,1.90335
11713,57.2002,18924.9,1.905009
11726,57.2637,18926.8,1.9057
11739,57.3271,18962.9,1.90827
11752,57.3906,18966.1,1.90974
11765,57.4541,19012.4,1.91358
11778,57.5176,19023.1,1.9156
11791,57.5811,19047.6,1.91762
11804,57.6445,19066.9,1.91924
11817,57.708,19078.4,1.91983
11830,57.7715,19109.2,1.923
11843,57.835,19133.2,1.9253
11856,57.8984,19161,1.92856
11869,57.9619,19156.8,1.92863
11882,58.0254,19208,1.93186
11895,58.0889,19205.9,1.93314
11908,58.1523,19234,1.93611
11921,58.2158,19266.6,1.93883
11934,58.2793,19258.3,1.93877
11947,58.3428,19308.9,1.94451
11960,58.40625,19295.1,1.94297
11973,58.4697,19324.2,1.94672
11986,58.5332,19359.3,1.94843
11999,58.5967,19390.5,1.95317
12012,58.6602,19402.2,1.9525
12025,58.7236,19425.9,1.95624
12038,58.7871,19418.2,1.95766
12051,58.8506,19460.5,1.95978
12064,58.9141,19487.7,1.96279
12077,58.9775,19478.3,1.96324
12090,59.041,19541.1,1.9673
12103,59.1045,19528.4,1.96697
12116,59.168,19571.5,1.96962
12129,59.2314,19585.7,1.97261
12142,59.2949,19616.3,1.97475
12155,59.3584,19632.3,1.97649
12168,59.4219,19660.6,1.97832
12181,59.4854,19661.5,1.98137
12194,59.5488,19676.2,1.98365
12207,59.6123,19727.8,1.98498
12220,59.6758,19707.4,1.98825
12233,59.7393,19767.5,1.9906
12246,59.8027,19748.5,1.99105
12259,59.8662,19809.1,1.99381
12272,59.9297,19819.8,1.99608
12285,59.9932,19846.3,1.99847
12298,60.0566,19873,2.00181
12311,60.1201,19879.5,2.002991
12324,60.1836,19894.9,2.00482
12337,60.2471,19894.6,2.00675
12350,60.3105,19950.4,2.01011
12363,60.374,19935.8,2.01188
12376,60.4375,20001.4,2.01406
12389,60.501,20001.9,2.0152
12402,60.5645,20026.6,2.01888
12415,60.6279,20068.2,2.021518
12428,60.6914,20096,2.02306
12441,60.7549,20126.4,2.02596
12454,60.8184,20131.2,2.02732
12467,60.8818,20165.8,2.03204
12480,60.9453,20171.3,2.03375
12493,61.0088,20203.7,2.03491
12506,61.0723,20209.6,2.03666
12519,61.1357,20244.5,2.03969
12532,61.1992,20260.3,2.04096
12545,61.2627,20279.5,2.04246
12558,61.3262,20310.5,2.04547
12571,61.3896,20289.8,2.04818
12584,61.4531,20346.1,2.05013
12597,61.5166,20340.6,2.05109
12610,61.5801,20372.9,2.05301
12623,61.6436,20386.4,2.05542
12636,61.707,20425.8,2.05649
12649,61.7705,20427.8,2.06008
12662,61.834,20466,2.06353
12675,61.8975,20484.9,2.06486
12688,61.9609,20492.2,2.06615
12701,62.0244,20527.5,2.06953
12714,62.0879,20518.6,2.06961
12727,62.1514,20570.7,2.07318
12740,62.2148,20586.2,2.07467
12753,62.2783,20611.2,2.07634
12766,62.3418,20631.2,2.08014
12779,62.4053,20655.9,2.08135
12792,62.46875,20671.4,2.08361
12805,62.5322,20704,2.08739
12818,62.5957,20722.2,2.08934
12831,62.6592,20732.3,2.08961
12844,62.7227,20769.1,2.09303
12857,62.7861,20749.9,2.094178
12870,62.8496,20807.7,2.09861
12883,62.9131,20807.1,2.09776
12896,62.9766,20837.5,2.100651
12909,63.04,20848.3,2.10254
12922,63.1035,20870.7,2.10371
12935,63.167,20889.1,2.10849
12948,63.2305,20912,2.10869
12961,63.2939,20944.1,2.11095
12974,63.3574,20954.3,2.113987
12987,63.4209,20974.5,2.11599
13000,63.4844,20970.1,2.11674
13013,63.5479,21006.3,2.11941
13026,63.6113,21024.8,2.12092
13039,63.6748,21053.5,2.12327
13052,63.7383,21075.4,2.12544
13065,63.8018,21092,2.12706
13078,63.8652,21106,2.12984
13091,63.9287,21129.2,2.13098
13104,63.9922,21158.1,2.13437
13117,64.0557,21152.4,2.13661
13130,64.1191,21190.7,2.13702
13143,64.1826,21188.7,2.13939
13156,64.2461,21233.2,2.14353
13169,64.30957,21261.2,2.14384
13182,64.373,21253.8,2.145689
13195,64.4365,21295.2,2.14985
13208,64.5,21279,2.14949
13221,64.5635,21319.1,2.15135
13234,64.627,21345.3,2.15439
13247,64.69043,21360.8,2.15508
13260,64.7539,21385.2,2.15753
13273,64.8174,21413.4,2.159945
13286,64.8809,21413.6,2.16222
13299,64.9443,21444.4,2.16494
13312,65.0078,21472.4,2.16771
13325,65.0713,21478.6,2.16749
13338,65.1348,21518.1,2.17058
13351,65.1982,21504.1,2.17149
13364,65.2617,21546.5,2.1754
13377,65.3252,21564.5,2.17816
13390,65.3887,21575.1,2.17907
13403,65.4521,21611.6,2.17999
13416,65.5156,21630.2,2.182791
13429,65.5791,21641.7,2.18589
13442,65.6426,21661.5,2.187129
13455,65.7061,21693.1,2.18821
13468,65.7695,21674.5,2.19116
13481,65.833,21725.9,2.19342
13494,65.8965,21735.5,2.19554
13507,65.96,21773.6,2.19868
13520,66.0234,21794.9,2.2001
13533,66.0869,21804.7,2.20242
13546,66.1504,21834.6,2.20508
13559,66.2139,21856.3,2.20606
13572,66.2773,21868.9,2.20937
13585,66.34082,21881.4,2.21054
13598,66.4043,21912.4,2.21496
13611,66.4678,21913.3,2.21483
13624,66.53125,21955.7,2.21708
13637,66.5947,21953.9,2.21895
13650,66.6582,21986.4,2.22088
13663,66.72168,22020.4,2.22347
13676,66.7852,22001.3,2.22316
13689,66.8486,22051.5,2.22727
13702,66.9121,22068.6,2.22875
13715,66.9756,22071.4,2.23172
13728,67.0391,22103.5,2.23218
13741,67.1025,22133.3,2.23476
13754,67.166,22134.7,2.23892
13767,67.2295,22172.1,2.23954
13780,67.293,22190.1,2.24107
13793,67.3564,22207.3,2.24367
13806,67.4199,22230.2,2.24761
13819,67.4834,22245.2,2.24742
13832,67.5469,22275.6,2.24991
13845,67.6104,22261.2,2.25194
13858,67.6738,22299.3,2.25525
13871,67.7373,22318,2.25744
13884,67.8008,22362.2,2.25908
13897,67.8643,22360.6,2.25986
13910,67.9277,22379.9,2.26276
13923,67.9912,22392.4,2.2643
13936,68.0547,22435.6,2.26689
13949,68.1182,22451.4,2.26814
13962,68.1816,22443.8,2.27047
13975,68.2451,22500.2,2.27321
13988,68.3086,22494.4,2.27488
14001,68.37207,22524.1,2.27831
14014,68.4355,22547.9,2.27918
14027,68.499,22567.8,2.28113
14040,68.5625,22576,2.28241
14053,68.626,22619.6,2.28575
14066,68.6895,22635.5,2.28832
14079,68.75293,22650.4,2.29005
14092,68.8164,22685.9,2.29345
14105,68.8799,22675.8,2.29222
14118,68.9434,22723.9,2.29602
14131,69.0068,22708.6,2.29847
14144,69.0703,22751.5,2.30081
14157,69.1338,22769.6,2.30285
14170,69.1973,22793.1,2.30372
14183,69.2607,22810.7,2.30941
14196,69.3242,22831.1,2.3082
14209,69.3877,22851.1,2.31085
14222,69.4512,22843.4,2.31453
14235,69.5146,22899.4,2.31655
14248,69.5781,22892.3,2.315599
14261,69.6416,22938.4,2.31969
14274,69.7051,22946.6,2.32135
14287,69.7686,22964.1,2.32427
14300,69.832,22996.9,2.32467
14313,69.8955,23006.7,2.32708
14326,69.959,23042.9,2.33155
14339,70.0225,23056.5,2.33304
14352,70.0859,23079.3,2.33316
14365,70.1494,23075.5,2.33502
14378,70.2129,23110.9,2.33987
14391,70.2764,23109,2.34008
14404,70.3398,23156.8,2.3416
14417,70.40332,23161.3,2.34468
14430,70.4668,23177.7,2.34727
14443,70.5303,23217.1,2.34796
14456,70.59375,23232.9,2.34923
14469,70.6572,23256.2,2.353672
14482,70.7207,23277.8,2.35543
14495,70.78418,23293.9,2.35849
14508,70.8477,23321.3,2.35927
14521,70.9111,23344.8,2.3611
14534,70.9746,23346.6,2.36329
14547,71.0381,23385.3,2.36704
14560,71.1016,23403.4,2.368
14573,71.165,23414,2.36925
14586,71.2285,23447.5,2.37294
14599,71.292,23430.5,2.3759
14612,71.3555,23487.5,2.37675
14625,71.4189,23492,2.37822
14638,71.4824,23505.2,2.380409
14651,71.5459,23531.8,2.38167
14664,71.6094,23562,2.38505
14677,71.6729,23577,2.38665
14690,71.7363,23602.4,2.38868
14703,71.7998,23604.4,2.39022
14716,71.8633,23626.9,2.39288
14729,71.9268,23665.8,2.39717
14742,71.9902,23635.4,2.39768
14755,72.0537,23700.9,2.40034
14768,72.1172,23724.7,2.40081
14781,72.1807,23717.1,2.40275
14794,72.2441,23763.1,2.40703
14807,72.3076,23772.9,2.40864
14820,72.3711,23801.1,2.41006
14833,72.43457,23827.4,2.41307
14846,72.498,23848.3,2.4161
14859,72.5615,23840.6,2.41626
14872,72.625,23897.3,2.41841
14885,72.6885,23875,2.41847
14898,72.752,23934.6,2.42359
14911,72.81543,23946.1,2.42391
14924,72.8789,23964.3,2.42651
14937,72.9424,23990.3,2.43052
14950,73.0059,23977.9,2.42904
14963,73.0693,24025.1,2.4342
14976,73.1328,24046.6,2.43472
14989,73.1963,24076.1,2.43881
15002,73.2598,24070.6,2.44112
15015,73.3232,24111,2.44291
15028,73.3867,24114.6,2.44405
15041,73.4502,24150.8,2.44661
15054,73.5137,24171.1,2.44829
15067,73.5771,24185.6,2.44965
15080,73.6406,24215.4,2.452827
15093,73.7041,24215.3,2.45232
15106,73.7676,24256.2,2.45743
15119,73.8311,24258,2.45871
15132,73.8945,24298.1,2.46247
15145,73.958,24301.4,2.463166
15158,74.0215,24332.1,2.4662
15171,74.085,24336.1,2.4682
15184,74.1484,24361.7,2.46928
15197,74.2119,24399.7,2.47168
15210,74.2754,24400.7,2.47459
15223,74.3389,24442.3,2.4768
15236,74.4023,24456.5,2.47778
15249,74.46582,24472.9,2.48238
15262,74.5293,24479.8,2.48224
15275,74.5928,24518.2,2.48421
15288,74.65625,24532.8,2.48597
15301,74.7197,24566.5,2.48917
15314,74.7832,24570.6,2.49206
15327,74.84668,24595.4,2.49217
15340,74.9102,24621.2,2.49476
15353,74.9736,24605.8,2.49656
15366,75.0371,24657.3,2.49829
15379,75.1006,24659,2.50059
15392,75.1641,24694.2,2.50342
15405,75.2275,24712.1,2.50443
15418,75.291,24738.7,2.507443
15431,75.3545,24755.8,2.50958
15444,75.418,24776.9,2.5123
15457,75.4814,24790.8,2.51327
15470,75.5449,24784.6,2.51475
15483,75.6084,24840.2,2.51828
15496,75.6719,24846.5,2.519891
15509,75.7354,24879.9,2.52316
15522,75.7988,24879.3,2.52384
15535,75.8623,24914.3,2.52644
15548,75.9258,24931.7,2.5301
15561,75.9893,24932.7,2.52966
15574,76.0527,24960.7,2.53269
15587,76.1162,24998.8,2.53514
15600,76.1797,25011.6,2.53846
15613,76.2432,25019.9,2.5401
15626,76.3066,25058.4,2.54182
15639,76.3701,25065.7,2.54248
15652,76.4336,25092.7,2.54587
15665,76.49707,25109.8,2.54842
15678,76.5605,25110.1,2.54851
15691,76.624,25156.6,2.55186
15704,76.6875,25161.7,2.552084
15717,76.751,25193.8,2.55698
15730,76.8145,25196.5,2.55637
15743,76.87793,25227,2.56168
15756,76.9414,25251.4,2.56307
15769,77.0049,25280.5,2.56516
15782,77.0684,25271.3,2.56632
15795,77.1318,25324.2,2.568373
15808,77.1953,25332.7,2.56945
15821,77.2588,25351.9,2.57153
15834,77.3223,25379.8,2.57578
15847,77.3857,25378.5,2.57651
15860,77.4492,25410.8,2.58041
15873,77.5127,25419.3,2.58056
15886,77.5762,25451.5,2.58293
15899,77.6396,25469.3,2.58631
15912,77.7031,25496.9,2.5881
15925,77.7666,25496,2.58901
15938,77.8301,25534.5,2.59185
15951,77.8936,25553.4,2.59551
15964,77.957,25569.4,2.596
15977,78.0205,25601.7,2.59746
15990,78.084,25586.6,2.6009
16003,78.1475,25631.4,2.60133
16016,78.2109,25654.9,2.60441
16029,78.2744,25675.8,2.60605
16042,78.3379,25697.8,2.60933
16055,78.4014,25720.6,2.61161
16068,78.4648,25736,2.61285
16081,78.52832,25755.5,2.61491
16094,78.5918,25774.1,2.61698
16107,78.6553,25781.3,2.6172
16120,78.71875,25832.2,2.6226
16133,78.7822,25821.3,2.62367
16146,78.8457,25865.1,2.62631
16159,78.90918,25880.9,2.62685
16172,78.9727,25894.7,2.62979
16185,79.0361,25923.3,2.63146
16198,79.0996,25908,2.6328
16211,79.1631,25953,2.6368
16224,79.2266,25978.6,2.63675
16237,79.29,25993.3,2.64039
16250,79.3535,26008.9,2.64139
16263,79.417,26045.9,2.64448
16276,79.4805,26034.6,2.64684
16289,79.5439,26073.6,2.64865
16302,79.6074,26099.7,2.65107
16315,79.6709,26110.9,2.65253
16328,79.7344,26158.4,2.65473
16341,79.7979,26126.4,2.65636
16354,79.8613,26181.9,2.66082
16367,79.9248,26187.1,2.66118
16380,79.9883,26219.5,2.66365
16393,80.0518,26232.2,2.66518
16406,80.1152,26257.8,2.668119
16419,80.1787,26274.9,2.66872
16432,80.2422,26307.2,2.67229
16445,80.3057,26330.2,2.67473
16458,80.3691,26335.6,2.67524
16471,80.4326,26366.9,2.67928
16484,80.4961,26365.6,2.67954
16497,80.55957,26393.2,2.6834
16510,80.623,26396.1,2.68375
16523,80.6865,26429.8,2.68491
16536,80.75,26448.5,2.69054
16549,80.8135,26489.3,2.69105
16562,80.877,26492.7,2.69277
16575,80.94043,26516,2.69467
16588,81.0039,26546,2.6982
16601,81.0674,26543.3,2.69949
16614,81.1309,26587.7,2.70303
16627,81.1943,26597.2,2.70233
16640,81.2578,26625.9,2.70624
16653,81.3213,26634.2,2.70793
16666,81.3848,26656.5,2.71038
16679,81.4482,26681.4,2.71407
16692,81.5117,26699.7,2.71543
16705,81.5752,26715.3,2.71695
16718,81.6387,26732.9,2.717705
16731,81.7021,26749.7,2.72071
16744,81.7656,26768.2,2.72149
16757,81.8291,26795.1,2.72371
16770,81.8926,26798.3,2.72712
16783,81.9561,26829.1,2.73049
16796,82.0195,26854.2,2.73074
16809,82.083,26862.2,2.73292
16822,82.1465,26884.7,2.73743
16835,82.21,26891.3,2.73643
16848,82.2734,26939.5,2.74053
16861,82.3369,26944.5,2.74196
16874,82.4004,26971.7,2.74443
16887,82.4639,26988.8,2.7452
16900,82.5273,27027.3,2.74938
16913,82.59082,27019.1,2.75057
16926,82.6543,27053.5,2.75329
16939,82.7178,27076.9,2.75463
16952,82.78125,27094.7,2.75651
16965,82.8447,27125.6,2.75812
16978,82.9082,27135.2,2.76016
16991,82.97168,27156.4,2.76269
17004,83.0352,27169.5,2.76564
17017,83.0986,27191.7,2.76764
17030,83.1621,27193.4,2.77029
17043,83.2256,27240.1,2.77264
17056,83.2891,27248.6,2.77283
17069,83.3525,27266.6,2.77529
17082,83.416,27295.1,2.77871
17095,83.4795,27310,2.78033
17108,83.543,27339.2,2.78252
17121,83.6064,27350.4,2.78421
17134,83.6699,27364.7,2.78646
17147,83.7334,27393.7,2.78804
17160,83.7969,27416.4,2.79212
17173,83.8604,27417.4,2.793607
17186,83.9238,27433.3,2.79444
17199,83.9873,27473.2,2.79694
17212,84.0508,27491.4,2.79926
17225,84.1143,27525.6,2.80326
17238,84.1777,27504.4,2.80156
17251,84.2412,27565.1,2.8068
17264,84.3047,27551.8,2.80644
17277,84.3682,27583.9,2.80932
17290,84.4316,27619.5,2.81195
17303,84.4951,27613.6,2.81247
17316,84.5586,27644.4,2.81635
17329,84.62207,27647.1,2.81795
17342,84.6855,27691,2.82041
17355,84.749,27690.1,2.82279
17368,84.8125,27739.8,2.82422
17381,84.876,27728.9,2.82617
17394,84.9395,27759.3,2.82919
17407,85.00293,27765.5,2.83015
17420,85.0664,27799.1,2.831
17433,85.1299,27817.5,2.83509
17446,85.1934,27825.8,2.837868
17459,85.2568,27856.9,2.83948
17472,85.3203,27871.2,2.84074
17485,85.3838,27896.7,2.84314
17498,85.4473,27916.7,2.846755
17511,85.5107,27946,2.84733
17524,85.5742,27953.5,2.84935
17537,85.6377,27987.9,2.851455
17550,85.7012,27995.2,2.854156
17563,85.7646,28009.2,2.85511
17576,85.8281,28044.1,2.85731
17589,85.8916,28044,2.85885
17602,85.9551,28082.3,2.86349
17615,86.0186,28098,2.86481
17628,86.082,28120.1,2.86531
17641,86.1455,28136.2,2.86867
17654,86.209,28158.6,2.87136
17667,86.2725,28168.6,2.87368
17680,86.3359,28206.7,2.87489
17693,86.3994,28220.5,2.87739
17706,86.4629,28216.7,2.87726
17719,86.5264,28265.6,2.88182
17732,86.5898,28254.9,2.88204
17745,86.65332,28288.1,2.887
17758,86.7168,28321.5,2.88708
17771,86.7803,28327.7,2.89093
17784,86.84375,28353,2.89207
17797,86.9072,28382,2.89629
17810,86.9707,28385.8,2.89559
17823,87.03418,28414.3,2.89913
17836,87.0977,28442,2.9014
17849,87.1611,28419.9,2.90239
17862,87.2246,28475.2,2.90488
17875,87.2881,28483,2.905396
17888,87.3516,28522.6,2.90928
17901,87.415,28532.2,2.91232
17914,87.4785,28539.9,2.91415
17927,87.542,28572.8,2.91493
17940,87.6055,28589.8,2.91546
17953,87.6689,28608.9,2.91939
17966,87.7324,28634.8,2.92131
17979,87.7959,28648,2.92353
17992,87.8594,28648.4,2.925679
18005,87.9229,28688.7,2.92857
18018,87.9863,28691,2.9297
18031,88.0498,28734.5,2.932354
18044,88.1133,28749,2.93393
18057,88.1768,28745.8,2.938036
18070,88.2402,28776.5,2.93896
18083,88.3037,28796.6,2.93976
18096,88.3672,28820.6,2.94347
18109,88.4307,28832.6,2.94342
18122,88.4941,28860.4,2.94678
18135,88.5576,28889.6,2.94826
18148,88.6211,28905.4,2.9507
18161,88.68457,28912,2.95362
18174,88.748,28932.4,2.95576
18187,88.8115,28954.5,2.95764
18200,88.875,28970.7,2.95732
18213,88.9385,29007.3,2.96445
18226,89.002,28978.6,2.96365
18239,89.06543,29044.2,2.96553
18252,89.1289,29054.9,2.96816
18265,89.1924,29079.4,2.97037
18278,89.2559,29093.2,2.97219
18291,89.3193,29123.3,2.97477
18304,89.3828,29119.6,2.97639
18317,89.4463,29155.7,2.97849
18330,89.5098,29184.8,2.980819
18343,89.5732,29179.9,2.981097
18356,89.6367,29208.7,2.98622
18369,89.7002,29213.2,2.987031
18382,89.7637,29243.5,2.98917
18395,89.8271,29258.8,2.99242
18408,89.8906,29286.4,2.99326
18421,89.9541,29299.6,2.99636
18434,90.0176,29324.6,2.99745
18447,90.0811,29336.7,2.999732
18460,90.1445,29352.7,3.00174
18473,90.208,29378.8,3.00383
18486,90.2715,29383.3,3.0059
18499,90.335,29420.6,3.00888
18512,90.3984,29434.8,3.009666
18525,90.4619,29446.3,3.01271
18538,90.5254,29467.6,3.01508
18551,90.5889,29489.3,3.01665
18564,90.6523,29509.4,3.01935
18577,90.71582,29525.5,3.02083
18580,90.7305,-1490.58,3.21757