File: ASM109_2021_data/MTS/UD/MTS_UD_2.csv
,Time [s],Load [N],Displacement [mm]
0,0.0078125,-258.2,-0.0003580749
11,0.0615234,-182.343,0.00183418
22,0.115234,-191.102,0.00246674
33,0.168945,-149.884,0.00663802
44,0.222656,-134.199,0.00686064
55,0.276367,-108.506,0.00715032
66,0.330078,-75.5074,0.0113176
77,0.383789,-89.1597,0.0122988
88,0.4375,-51.2218,0.015357
99,0.491211,-45.0869,0.0155278
110,0.544922,-28.9791,0.0169735
121,0.598633,0.666206,0.01903519
132,0.652344,3.37881,0.01973927
143,0.706055,36.9028,0.0225976
154,0.759766,66.123,0.0251265
165,0.813477,54.6623,0.0251104
176,0.8671875,106.093,0.0287385
187,0.920898,112.024,0.0302137
198,0.974609,117.679,0.0306295
209,1.02832,146.911,0.03324151
220,1.08203,152.145,0.03500998
231,1.13574,195.817,0.0372662
242,1.18945,197.02,0.0384405
253,1.24316,219.56,0.04045397
264,1.296875,233.518,0.0433601
275,1.35059,274.78,0.045412
286,1.4043,247.273,0.0452372
297,1.45801,311.94,0.0487107
308,1.51172,306.901,0.0488909
319,1.56543,345.902,0.0527649
330,1.61914,356.093,0.0543863
341,1.67285,364.307,0.05429104
352,1.72656,412.078,0.0576429
363,1.78027,407.277,0.05989328
374,1.83398,428.282,0.0608571
385,1.8877,452.766,0.0625388
396,1.94141,465.909,0.063926
407,1.99512,495.026,0.063989
418,2.04883,516.085,0.0675322
429,2.10254,505.508,0.0675358
440,2.15625,569.169,0.0717004
451,2.20996,557.909,0.0714831
462,2.26367,576.097,0.0755131
473,2.31738,623.514,0.0786048
484,2.37109,610.668,0.078029
495,2.4248,653.678,0.0801283
506,2.47852,638.529,0.0826465
517,2.53223,664.073,0.0816563
528,2.58594,709.52,0.0862308
539,2.63965,726.081,0.0867337
550,2.69336,734.727,0.0872286
561,2.74707,763.591,0.0898223
572,2.80078,744.87,0.0928362
583,2.85449,801.245,0.0957794
594,2.9082,816.67,0.095327
605,2.96191,838.999,0.0968318
616,3.015625,882.304,0.100927
627,3.06934,868.585,0.101083
638,3.12305,903.565,0.10295
649,3.17676,907.169,0.104224
660,3.23047,928.973,0.106332
671,3.28418,942.905,0.109388
682,3.33789,976.231,0.110532
693,3.3916,984.088,0.109837
704,3.44531,1029.29,0.113957
715,3.49902,993.968,0.115702
726,3.55273,1060.3,0.117139
737,3.60645,1068.32,0.119647
748,3.66016,1083.71,0.1202555
759,3.71387,1110.76,0.122564
770,3.76758,1112.62,0.124479
781,3.82129,1113.04,0.125412
792,3.875,1165.14,0.127804
803,3.92871,1176.32,0.130105
814,3.98242,1205.3,0.131639
825,4.03613,1218.5,0.134154
836,4.08984,1224.67,0.132972
847,4.14355,1272.38,0.136285
858,4.19727,1245.57,0.139034
869,4.25098,1305.7,0.140002
880,4.30469,1311.49,0.142034
891,4.3584,1325.74,0.143632
902,4.41211,1352.16,0.145427
913,4.46582,1367.54,0.147392
924,4.51953,1354.7,0.147324
935,4.57324,1421.55,0.151585
946,4.62695,1428.58,0.152517
957,4.68066,1448.62,0.154003
968,4.734375,1476.45,0.156072
979,4.78809,1448.36,0.157274
990,4.8418,1517.18,0.161869
1001,4.89551,1508.2,0.160473
1012,4.94922,1549.14,0.163547
1023,5.00293,1569.55,0.1660274
1034,5.05664,1570.18,0.168719
1045,5.11035,1605.97,0.168653
1056,5.16406,1619.67,0.1706171
1067,5.21777,1615.71,0.170129
1078,5.27148,1663.47,0.17471
1089,5.3252,1693.43,0.176815
1100,5.37891,1701.62,0.177851
1111,5.43262,1725.05,0.181061
1122,5.48633,1710.42,0.181867
1133,5.54004,1762.49,0.183292
1144,5.59375,1775.82,0.184366
1155,5.64746,1774.77,0.188431
1166,5.70117,1820.6,0.189244
1177,5.75488,1827.42,0.189897
1188,5.80859,1850.16,0.190268
1199,5.8623,1883.63,0.195448
1210,5.91602,1864.06,0.194936
1221,5.96973,1913.92,0.1973
1232,6.02344,1928.98,0.198902
1243,6.07715,1928.05,0.198892
1254,6.13086,1976.22,0.203084
1265,6.18457,1976.78,0.204223
1276,6.23828,2016.04,0.207751
1287,6.29199,2014.63,0.206804
1298,6.3457,2040.81,0.209059
1309,6.39941,2048.62,0.211008
1320,6.453125,2073.6,0.213718
1331,6.50684,2080.71,0.214017
1342,6.56055,2130.79,0.217682
1353,6.61426,2111.22,0.217268
1364,6.66797,2152.7,0.219808
1375,6.72168,2178.95,0.223074
1386,6.77539,2168.53,0.223975
1397,6.8291,2219.42,0.227152
1408,6.88281,2216.55,0.226971
1419,6.93652,2255.79,0.229878
1430,6.99023,2263.5,0.231014
1441,7.04395,2274.93,0.233339
1452,7.09766,2310.09,0.2350916
1463,7.15137,2325.96,0.237545
1474,7.20508,2323.21,0.238112
1485,7.25879,2377.14,0.241948
1496,7.3125,2358.51,0.240677
1507,7.36621,2405.45,0.24309
1518,7.41992,2432.31,0.246012
1529,7.47363,2422.26,0.245288
1540,7.52734,2463.49,0.249622
1551,7.58105,2457.79,0.251686
1562,7.63477,2497.06,0.2532126
1573,7.68848,2509.17,0.253221
1584,7.74219,2538.82,0.256265
1595,7.7959,2556.35,0.257916
1606,7.84961,2576.14,0.260225
1617,7.90332,2570.84,0.261253
1628,7.95703,2617.17,0.263405
1639,8.01074,2628.83,0.265033
1650,8.06445,2646.61,0.266519
1661,8.11816,2672.51,0.269435
1672,8.171875,2675.98,0.271359
1683,8.22559,2710.81,0.271934
1694,8.2793,2725.34,0.274623
1705,8.33301,2729.99,0.274778
1716,8.38672,2753.95,0.278787
1727,8.44043,2780.48,0.278754
1738,8.49414,2791.65,0.279141
1749,8.54785,2838.25,0.282999
1760,8.60156,2821.82,0.284705
1771,8.65527,2854.04,0.287133
1782,8.70898,2880.84,0.289553
1793,8.7627,2896.92,0.290363
1804,8.81641,2922.03,0.291242
1815,8.87012,2940.03,0.293666
1826,8.92383,2958.46,0.294157
1837,8.97754,2979.62,0.298457
1848,9.03125,2978.79,0.298132
1859,9.08496,3020.32,0.302303
1870,9.13867,3044.34,0.30361
1881,9.19238,3024.34,0.303364
1892,9.24609,3094.89,0.30698
1903,9.2998,3047.5,0.307521
1914,9.35352,3110.97,0.309893
1925,9.40723,3137.61,0.312886
1936,9.46094,3135.68,0.312666
1947,9.51465,3172.52,0.315219
1958,9.56836,3178.61,0.317248
1969,9.62207,3196.51,0.316366
1980,9.67578,3229.63,0.320268
1991,9.72949,3245.83,0.324555
2002,9.7832,3266.75,0.32546
2013,9.83691,3291.93,0.325951
2024,9.890625,3276.1,0.327821
2035,9.94434,3330.34,0.331245
2046,9.99805,3314.8,0.331094
2057,10.0518,3360.51,0.332642
2068,10.1055,3391.7,0.335541
2079,10.1592,3376.25,0.336791
2090,10.2129,3410.18,0.33897
2101,10.2666,3421.64,0.340987
2112,10.3203,3444.12,0.339261
2123,10.374,3471.35,0.34424
2134,10.4277,3473.05,0.346704
2145,10.4814,3507,0.34798
2156,10.5352,3537.2,0.350296
2167,10.5889,3504.85,0.351524
2178,10.6426,3570.06,0.352876
2189,10.6963,3566.01,0.354956
2200,10.75,3606.4,0.355347
2211,10.8037,3613.68,0.359486
2222,10.8574,3637.33,0.361712
2233,10.9111,3659.95,0.361585
2244,10.9648,3683.45,0.363696
2255,11.0186,3664.38,0.364246
2266,11.0723,3717.99,0.367392
2277,11.126,3734.22,0.3684698
2288,11.1797,3756.44,0.369076
2299,11.2334,3766.41,0.37211
2310,11.2871,3750.61,0.374267
2321,11.3408,3808.82,0.376009
2332,11.3945,3812.4,0.377272
2343,11.4482,3840.27,0.379005
2354,11.502,3857.28,0.381031
2365,11.5557,3872.88,0.383612
2376,11.6094,3875.33,0.382142
2387,11.6631,3935.61,0.386614
2398,11.7168,3909.42,0.387415
2409,11.7705,3950.47,0.390138
2420,11.8242,3986.18,0.393536
2431,11.8779,3955.51,0.393963
2442,11.9316,4015.24,0.396379
2453,11.9854,4012.8,0.398346
2464,12.0391,4056.47,0.400384
2475,12.0928,4065.61,0.401963
2486,12.1465,4091.14,0.402836
2497,12.2002,4111.51,0.404107
2508,12.2539,4134.89,0.406994
2519,12.3076,4115.04,0.408316
2530,12.3613,4178.5,0.410836
2541,12.415,4141.16,0.411479
2552,12.46875,4212.33,0.412735
2563,12.5225,4224.47,0.415155
2574,12.5762,4226.67,0.4161416
2585,12.6299,4264.85,0.418814
2596,12.6836,4266.89,0.421406
2607,12.7373,4290.96,0.420939
2618,12.791,4307.46,0.425298
2629,12.8447,4322.3,0.426517
2640,12.8984,4348.14,0.426512
2651,12.9521,4380.78,0.430546
2662,13.0059,4372.45,0.430019
2673,13.0596,4419.73,0.433041
2684,13.1133,4422.97,0.435875
2695,13.167,4450.18,0.435962
2706,13.2207,4479.94,0.439395
2717,13.2744,4469.98,0.440204
2728,13.3281,4505.99,0.441406
2739,13.3818,4506.01,0.444576
2750,13.4355,4537.39,0.444441
2761,13.4893,4553.22,0.448142
2772,13.543,4590.05,0.450528
2783,13.59668,4593.48,0.450071
2794,13.6504,4632.67,0.454708
2805,13.7041,4598.1,0.45476
2816,13.7578,4672.43,0.457767
2827,13.8115,4666.19,0.458699
2838,13.8652,4682.78,0.459317
2849,13.9189,4721.54,0.46349
2860,13.9727,4723.93,0.463345
2871,14.0264,4755.55,0.46625
2882,14.0801,4765.05,0.466695
2893,14.1338,4782.31,0.469215
2904,14.1875,4805.63,0.470843
2915,14.2412,4823.92,0.473128
2926,14.2949,4812.38,0.474595
2937,14.3486,4889.07,0.476953
2948,14.4023,4847.02,0.476866
2959,14.4561,4910.94,0.48147
2970,14.5098,4926.77,0.481925
2981,14.5635,4946.25,0.484016
2992,14.6172,4967.94,0.485086
3003,14.6709,4970.94,0.488395
3014,14.7246,5006.79,0.489491
3025,14.77832,5032.78,0.491112
3036,14.832,5046.04,0.493835
3047,14.8857,5056.81,0.494571
3058,14.9395,5077.21,0.496224
3069,14.9932,5069.23,0.4963924
3080,15.0469,5126.98,0.501164
3091,15.1006,5115.09,0.501286
3102,15.1543,5161.25,0.504935
3113,15.208,5181.38,0.505547
3124,15.2617,5194.01,0.507064
3135,15.31543,5219.64,0.508629
3146,15.3691,5214.69,0.511841
3157,15.4229,5221.57,0.512846
3168,15.4766,5273.41,0.514368
3179,15.5303,5285.21,0.516069
3190,15.584,5295.69,0.517503
3201,15.6377,5327.27,0.521195
3212,15.6914,5303.2,0.521567
3223,15.7451,5370.84,0.524538
3234,15.7988,5372.81,0.52443
3245,15.8525,5396.07,0.52578
3256,15.90625,5419.86,0.529672
3267,15.96,5417.67,0.530914
3278,16.0137,5431.89,0.530304
3289,16.0674,5475.93,0.53417
3300,16.1211,5476.91,0.53441
3311,16.1748,5499.37,0.536884
3322,16.2285,5528.12,0.54016
3333,16.2822,5545.01,0.540212
3344,16.3359,5579.74,0.544411
3355,16.3896,5569.49,0.543606
3366,16.4434,5608.22,0.547002
3377,16.49707,5622.62,0.547646
3388,16.5508,5624.94,0.549062
3399,16.6045,5648.92,0.551054
3410,16.6582,5662.22,0.556079
3421,16.7119,5682.16,0.555681
3432,16.7656,5721.33,0.559186
3443,16.8193,5725.26,0.558824
3454,16.873,5765.61,0.563374
3465,16.9268,5790.33,0.563428
3476,16.9805,5785.03,0.564215
3487,17.03418,5834.7,0.568594
3498,17.0879,5800.95,0.569016
3509,17.1416,5861.22,0.570346
3520,17.1953,5886.52,0.571933
3531,17.249,5892.96,0.573868
3542,17.3027,5915.79,0.575474
3553,17.3564,5931.08,0.577575
3564,17.4102,5919.61,0.577949
3575,17.4639,5986.78,0.582198
3586,17.5176,5982.63,0.583294
3597,17.5713,6007.68,0.585503
3608,17.625,6042.19,0.5871731
3619,17.6787,6029.74,0.588305
3630,17.7324,6068.19,0.591454
3641,17.7861,6067.55,0.591686
3652,17.8398,6093.25,0.591829
3663,17.8936,6112.28,0.594737
3674,17.9473,6139.23,0.597606
3685,18.001,6157.96,0.598948
3696,18.0547,6180.11,0.60215
3707,18.1084,6143.78,0.602065
3718,18.1621,6211.52,0.605441
3729,18.21582,6222.44,0.605601
3740,18.2695,6251.05,0.607306
3751,18.3232,6283.2,0.609885
3762,18.377,6263.59,0.610774
3773,18.4307,6316.28,0.612657
3784,18.4844,6311.5,0.614504
3795,18.5381,6324.97,0.61765
3806,18.5918,6365.59,0.617607
3817,18.6455,6383.74,0.619411
3828,18.6992,6384.05,0.622033
3839,18.75293,6433.95,0.623815
3850,18.8066,6388.12,0.625252
3861,18.8604,6462.07,0.628337
3872,18.9141,6483.94,0.628832
3883,18.9678,6492.72,0.630875
3894,19.0215,6524.15,0.634772
3905,19.0752,6520.14,0.635242
3916,19.1289,6553.03,0.636812
3927,19.1826,6561.14,0.638689
3938,19.2363,6579.58,0.6390658
3949,19.29,6601.81,0.640923
3960,19.34375,6625.11,0.643105
3971,19.3975,6605.15,0.643696
3982,19.4512,6663.66,0.64764
3993,19.5049,6660.53,0.6481
4004,19.5586,6701.97,0.651057
4015,19.6123,6717.06,0.6522851
4026,19.666,6714.45,0.654669
4037,19.7197,6765.22,0.65722
4048,19.7734,6762.2,0.657996
4059,19.8271,6793.42,0.65878
4070,19.8809,6798.96,0.66212
4081,19.93457,6831.24,0.662667
4092,19.9883,6838.61,0.664679
4103,20.042,6870.07,0.667673
4114,20.0957,6837.84,0.6693
4125,20.1494,6911.33,0.670856
4136,20.2031,6907.53,0.671391
4147,20.2568,6940.2,0.674004
4158,20.3105,6954.06,0.6769042
4169,20.3643,6964.03,0.677154
4180,20.418,7007.03,0.678017
4191,20.47168,7003.96,0.680732
4202,20.5254,7031.63,0.68221
4213,20.5791,7054.2,0.685252
4224,20.6328,7070.54,0.68685
4235,20.6865,7076.31,0.689517
4246,20.7402,7107.2,0.691077
4257,20.7939,7103.56,0.69156
4268,20.8477,7140.79,0.692185
4279,20.9014,7132.56,0.69597
4290,20.9551,7184.51,0.696527
4301,21.0088,7214.28,0.700129
4312,21.0625,7201.92,0.699949
4323,21.1162,7245.44,0.703415
4334,21.1699,7263.33,0.703846
4345,21.2236,7261.61,0.7040906
4356,21.2773,7287.49,0.706945
4367,21.3311,7312.78,0.70958
4378,21.3848,7323.29,0.712077
4389,21.4385,7359.4,0.713492
4400,21.4922,7339.39,0.7147814
4411,21.5459,7401.83,0.717225
4422,21.5996,7371.53,0.718968
4433,21.65332,7423.37,0.72086
4444,21.707,7445.97,0.72168
4455,21.7607,7460.2,0.724172
4466,21.8145,7473.66,0.72456
4477,21.8682,7498.26,0.728459
4488,21.9219,7493.81,0.728635
4499,21.9756,7536.06,0.7303673
4510,22.0293,7545.86,0.732262
4521,22.083,7557.34,0.733411
4532,22.1367,7593.53,0.737517
4543,22.19043,7564.86,0.738818
4554,22.2441,7634.36,0.742241
4565,22.2979,7625.15,0.741758
4576,22.3516,7635.03,0.744289
4587,22.4053,7676.62,0.744846
4598,22.459,7693.98,0.747569
4609,22.5127,7702.15,0.746019
4620,22.5664,7749.13,0.750679
4631,22.6201,7750.19,0.751361
4642,22.6738,7772.27,0.755805
4653,22.7275,7803.69,0.756877
4664,22.78125,7797.11,0.756813
4675,22.835,7845.98,0.759598
4686,22.8887,7824.39,0.76116
4697,22.9424,7861.66,0.762951
4708,22.9961,7875.3,0.764599
4719,23.0498,7904.31,0.767665
4730,23.1035,7913.08,0.768469
4741,23.1572,7950.12,0.769946
4752,23.2109,7929.49,0.77086
4763,23.2646,7986.37,0.774786
4774,23.3184,7990.04,0.776023
4785,23.37207,8020.86,0.777371
4796,23.4258,8053.23,0.781686
4807,23.4795,8053.61,0.780855
4818,23.5332,8084.12,0.784282
4829,23.5869,8090.66,0.785598
4840,23.6406,8116.84,0.787465
4851,23.6943,8132.33,0.789628
4862,23.748,8155.88,0.790865
4873,23.8018,8184.69,0.794045
4884,23.8555,8207.79,0.796407
4895,23.90918,8169.13,0.794646
4906,23.9629,8240.87,0.799285
4917,24.0166,8244.67,0.798865
4928,24.0703,8245.65,0.801183
4939,24.124,8307.22,0.804909
4950,24.1777,8280.78,0.805504
4961,24.2314,8333.75,0.8071835
4972,24.2852,8343.46,0.809474
4983,24.3389,8349.77,0.809293
4994,24.3926,8374.58,0.81202
5005,24.4463,8399.31,0.8129105
5016,24.5,8407.32,0.813808
5027,24.5537,8434.83,0.81977
5038,24.6074,8436.57,0.819553
5049,24.6611,8469.84,0.822884
5060,24.7148,8504.22,0.824474
5071,24.7686,8492.86,0.824452
5082,24.8223,8541.15,0.8272661
5093,24.876,8528.23,0.829269
5104,24.9297,8576.66,0.830057
5115,24.9834,8591.83,0.833563
5126,25.0371,8609.7,0.835725
5137,25.09082,8623.47,0.835499
5148,25.1445,8652.39,0.838782
5159,25.1982,8631.54,0.838948
5170,25.252,8686.1,0.8425945
5181,25.3057,8683.8,0.843096
5192,25.3594,8725.89,0.84623
5203,25.4131,8752.81,0.847215
5214,25.4668,8724.25,0.849325
5225,25.5205,8787.05,0.852942
5236,25.5742,8788.78,0.852147
5247,25.62793,8816.13,0.855394
5258,25.6816,8832.51,0.856196
5269,25.7354,8845.59,0.857403
5280,25.7891,8846.99,0.858329
5291,25.8428,8880.6,0.86227
5302,25.8965,8848.75,0.861984
5313,25.9502,8925.89,0.865968
5324,26.0039,8907.62,0.866448
5335,26.0576,8956.77,0.867629
5346,26.1113,8977.94,0.871529
5357,26.165,8980.38,0.871985
5368,26.21875,8999.18,0.873974
5379,26.2725,9025.68,0.87613
5390,26.3262,9031.01,0.87638
5401,26.3799,9061.81,0.878559
5412,26.4336,9077.19,0.880227
5423,26.4873,9091.81,0.882559
5434,26.541,9126.74,0.88441
5445,26.5947,9094.17,0.8851732
5456,26.6484,9173.31,0.8891657
5467,26.7021,9176.26,0.888749
5478,26.7559,9194.91,0.891569
5489,26.80957,9223.54,0.893345
5500,26.8633,9232.77,0.894768
5511,26.917,9252.03,0.896849
5522,26.9707,9281.46,0.898838
5533,27.0244,9263.45,0.898726
5544,27.0781,9294.46,0.902221
5555,27.1318,9317.37,0.904163
5566,27.1855,9323.16,0.905529
5577,27.2393,9374.47,0.907778
5588,27.293,9357.81,0.909518
5599,27.34668,9406.98,0.911818
5610,27.4004,9409.79,0.913016
5621,27.4541,9416.12,0.914716
5632,27.5078,9467.5,0.916429
5643,27.5615,9471.52,0.920013
5654,27.6152,9456.58,0.918335
5665,27.6689,9506.06,0.923453
5676,27.7227,9522.2,0.922091
5687,27.7764,9550.04,0.924253
5698,27.8301,9574.39,0.929207
5709,27.8838,9564.99,0.928173
5720,27.9375,9607.73,0.9305343
5731,27.9912,9580.73,0.933077
5742,28.0449,9630.69,0.933274
5753,28.0986,9660.65,0.936403
5764,28.1523,9669.83,0.937596
5775,28.2061,9696.09,0.938233
5786,28.2598,9703.99,0.941165
5797,28.3135,9717.38,0.941676
5808,28.3672,9746.91,0.945514
5819,28.4209,9758.67,0.947748
5830,28.4746,9781.11,0.94882
5841,28.52832,9819.41,0.952392
5852,28.582,9787.44,0.951717
5863,28.6357,9851.51,0.9562062
5874,28.6895,9828.59,0.95478
5885,28.7432,9861.46,0.956755
5896,28.7969,9901.56,0.959023
5907,28.8506,9910.6,0.959821
5918,28.9043,9921.68,0.961212
5929,28.958,9936.1,0.963779
5940,29.0117,9923.78,0.96326
5951,29.06543,9971.62,0.968108
5962,29.1191,9994.42,0.970107
5973,29.1729,10010.2,0.971082
5984,29.2266,10044.1,0.972547
5995,29.2803,10044.9,0.976514
6006,29.334,10079,0.977855
6017,29.3877,10082,0.978405
6028,29.4414,10110.5,0.978706
6039,29.4951,10118.5,0.981092
6050,29.5488,10150.9,0.983608
6061,29.6025,10146,0.984678
6072,29.65625,10196.2,0.988525
6083,29.71,10155.2,0.986779
6094,29.7637,10217.1,0.990459
6105,29.8174,10240.9,0.991766
6116,29.8711,10235.6,0.99349
6127,29.9248,10278.6,0.997297
6138,29.9785,10283.5,0.996641
6149,30.0322,10322.1,1.00083
6160,30.0859,10318.8,1.0015
6171,30.1396,10346.6,1.00273
6182,30.1934,10352.1,1.00522
6193,30.24707,10389.6,1.00721
6204,30.3008,10365.9,1.00689
6215,30.3545,10430.5,1.011415
6226,30.4082,10423.9,1.01209
6237,30.4619,10457.6,1.01313
6248,30.5156,10491.2,1.01534
6259,30.5693,10473.1,1.01795
6270,30.623,10529.2,1.01997
6281,30.6768,10528.4,1.02052
6292,30.7305,10556.1,1.02251
6303,30.78418,10565.1,1.02459
6314,30.8379,10579.6,1.02751
6325,30.8916,10588.2,1.02682
6336,30.9453,10632.6,1.03109
6347,30.999,10615.5,1.03118
6358,31.0527,10660.2,1.0341
6369,31.1064,10671.7,1.03356
6380,31.1602,10696.7,1.03564
6391,31.2139,10733.3,1.03909
6402,31.2676,10726.8,1.04093
6413,31.3213,10764.8,1.04364
6424,31.375,10775.2,1.04468
6435,31.4287,10790.5,1.04647
6446,31.4824,10810.8,1.04856
6457,31.5361,10831.9,1.0509
6468,31.5898,10838.5,1.05005
6479,31.6436,10880.8,1.05418
6490,31.6973,10854.9,1.05451
6501,31.751,10913.3,1.05807
6512,31.8047,10928.6,1.05774
6523,31.8584,10923.8,1.05955
6534,31.9121,10963.3,1.06265
6545,31.96582,10980.8,1.06364
6556,32.0195,11007.4,1.06594
6567,32.0732,11024.3,1.06738
6578,32.127,11008.1,1.06673
6589,32.1807,11048.3,1.07095
6600,32.2344,11067.6,1.07352
6611,32.2881,11067.8,1.07322
6622,32.3418,11116.2,1.0783
6633,32.3955,11099.9,1.07738
6644,32.4492,11152.4,1.07917
6655,32.50293,11162,1.08175
6666,32.5566,11172.7,1.082738
6677,32.6104,11208.6,1.08593
6688,32.6641,11220.4,1.08642
6699,32.7178,11239.5,1.0894
6710,32.7715,11258.7,1.09197
6721,32.8252,11249.4,1.09158
6732,32.8789,11285.8,1.09378
6743,32.9326,11323.7,1.09576
6754,32.9863,11305.7,1.09697
6765,33.04,11366.8,1.101092
6776,33.09375,11331.5,1.10198
6787,33.1475,11391.1,1.10295
6798,33.2012,11406.2,1.10494
6809,33.2549,11419.8,1.10746
6820,33.3086,11447.5,1.10964
6831,33.3623,11460.8,1.11172
6842,33.416,11470.1,1.11176
6853,33.4697,11498.5,1.11433
6864,33.5234,11488.9,1.11712
6875,33.5771,11510.9,1.11647
6886,33.6309,11556.5,1.12118
6897,33.68457,11524.3,1.1217
6908,33.7383,11600.7,1.1235
6919,33.792,11594.5,1.12404
6930,33.8457,11629,1.12656
6941,33.8994,11645.5,1.12978
6952,33.9531,11653.6,1.12891
6963,34.0068,11685.4,1.13111
6974,34.0605,11701.4,1.13323
6985,34.1143,11694.9,1.13507
6996,34.168,11741.5,1.13768
7007,34.22168,11756.1,1.1387
7018,34.2754,11755.8,1.14033
7029,34.3291,11796.7,1.14296
7040,34.3828,11779.1,1.14322
7051,34.4365,11834.7,1.14707
7062,34.4902,11842.6,1.146593
7073,34.5439,11852.1,1.14951
7084,34.5977,11860.5,1.15096
7095,34.6514,11893.9,1.15468
7106,34.7051,11919.9,1.15575
7117,34.7588,11947.9,1.157438
7128,34.8125,11907.3,1.15745
7139,34.8662,11975.8,1.1597
7150,34.9199,11986.2,1.16253
7161,34.9736,12010,1.16432
7172,35.0273,12038.3,1.16674
7183,35.0811,12031.9,1.1673
7194,35.1348,12071.5,1.16855
7205,35.1885,12075.4,1.17133
7216,35.2422,12088.7,1.17369
7227,35.2959,12108.4,1.17549
7238,35.3496,12149.3,1.17813
7249,35.40332,12133.2,1.17651
7260,35.457,12187.3,1.18075
7271,35.5107,12156.7,1.18132
7282,35.5645,12196.3,1.18444
7293,35.6182,12222.4,1.18634
7304,35.6719,12221.6,1.18721
7315,35.7256,12264.7,1.18867
7326,35.7793,12277.8,1.19101
7337,35.833,12307.1,1.1924
7348,35.8867,12320.3,1.19387
7359,35.94043,12332.4,1.195115
7370,35.9941,12343.9,1.1967
7381,36.0479,12384,1.20068
7392,36.1016,12360.3,1.1999
7403,36.1553,12419.3,1.20476
7414,36.209,12411.7,1.20467
7425,36.2627,12453.5,1.20862
7436,36.3164,12478.2,1.20901
7447,36.3701,12476.6,1.20959
7458,36.4238,12503.3,1.21273
7469,36.4775,12506.3,1.2139
7480,36.53125,12530.8,1.21443
7491,36.585,12557.1,1.2183
7502,36.6387,12566.4,1.21794
7513,36.6924,12579.4,1.21957
7524,36.7461,12607.9,1.22432
7535,36.7998,12586,1.22346
7546,36.8535,12651.7,1.22785
7557,36.9072,12658.5,1.22858
7568,36.9609,12672.4,1.22912
7579,37.0146,12716.6,1.23337
7590,37.0684,12718.1,1.23387
7601,37.12207,12744.4,1.23662
7612,37.1758,12754.6,1.23764
7623,37.2295,12775.2,1.23827
7634,37.2832,12790.2,1.2403
7645,37.3369,12813.9,1.24373
7656,37.3906,12814.6,1.24413
7667,37.4443,12856,1.24776
7678,37.498,12831.8,1.24861
7689,37.5518,12890.8,1.25023
7700,37.6055,12910.9,1.25173
7711,37.65918,12917.9,1.25165
7722,37.7129,12943.4,1.25567
7733,37.7666,12949,1.25734
7744,37.8203,12978.5,1.259535
7755,37.874,12993,1.26141
7766,37.9277,12998.9,1.26035
7777,37.9814,13023.1,1.26287
7788,38.0352,13049.8,1.26585
7799,38.0889,13024,1.26752
7810,38.1426,13088.5,1.27168
7821,38.1963,13074.8,1.2712
7832,38.25,13116.8,1.27281
7843,38.3037,13133.2,1.27343
7854,38.3574,13137.3,1.27552
7865,38.4111,13175.4,1.2777
7876,38.4648,13198.3,1.28122
7887,38.5186,13193.1,1.28055
7898,38.5723,13232.7,1.28559
7909,38.626,13242.8,1.28447
7920,38.6797,13270.8,1.28785
7931,38.7334,13293.6,1.28971
7942,38.7871,13275.3,1.29153
7953,38.84082,13331.1,1.29379
7964,38.8945,13327.4,1.29456
7975,38.9482,13356.7,1.29619
7986,39.002,13385.9,1.29896
7997,39.0557,13400.7,1.30101
8008,39.1094,13417.6,1.30052
8019,39.1631,13430.5,1.3044
8030,39.2168,13439.3,1.306078
8041,39.2705,13472.3,1.30897
8052,39.3242,13492.3,1.30921
8063,39.37793,13513,1.31096
8074,39.4316,13526.7,1.31125
8085,39.4854,13518.9,1.31319
8096,39.5391,13569,1.31645
8107,39.5928,13578.1,1.31935
8118,39.6465,13589.2,1.31945
8129,39.7002,13618,1.32232
8140,39.7539,13623.8,1.32366
8151,39.8076,13647.7,1.32413
8162,39.8613,13672.9,1.32913
8173,39.915,13656.5,1.32593
8184,39.96875,13702.8,1.33077
8195,40.0225,13722.7,1.33354
8206,40.0762,13723.8,1.33366
8217,40.1299,13762.1,1.33711
8228,40.1836,13754.6,1.33669
8239,40.2373,13802.1,1.341548
8250,40.291,13813.6,1.34132
8261,40.3447,13822.7,1.342629
8272,40.3984,13853.6,1.34552
8283,40.4521,13863.1,1.34813
8294,40.5059,13864.8,1.34788
8305,40.55957,13913.6,1.35026
8316,40.6133,13906.6,1.3519
8327,40.667,13934,1.35389
8338,40.7207,13963,1.35654
8349,40.7744,13968.3,1.35696
8360,40.8281,13995.3,1.35913
8371,40.8818,13991.9,1.362108
8382,40.9355,14026.8,1.36338
8393,40.9893,14042,1.36451
8404,41.043,14064.1,1.36653
8415,41.09668,14081.8,1.3661
8426,41.1504,14109.9,1.36929
8437,41.2041,14089.5,1.37073
8448,41.2578,14140.3,1.37366
8459,41.3115,14156.5,1.37375
8470,41.3652,14184.2,1.37817
8481,41.4189,14209.2,1.37878
8492,41.4727,14193.8,1.38031
8503,41.5264,14240,1.38434
8514,41.5801,14256.8,1.38481
8525,41.6338,14257.6,1.38458
8536,41.6875,14292.1,1.38683
8547,41.7412,14291.5,1.38987
8558,41.7949,14321.9,1.39169
8569,41.8486,14348.8,1.39347
8580,41.9023,14322.7,1.39355
8591,41.9561,14377.1,1.39686
8602,42.0098,14390.4,1.39686
8613,42.0635,14420.6,1.40066
8624,42.1172,14436.2,1.403988
8635,42.1709,14437.9,1.40408
8646,42.2246,14478,1.40705
8657,42.27832,14471.2,1.40856
8668,42.332,14503.4,1.40761
8679,42.3857,14517.1,1.411078
8690,42.4395,14542.3,1.41308
8701,42.4932,14526.8,1.41323
8712,42.5469,14587.3,1.4172
8723,42.6006,14561.6,1.416412
8734,42.6543,14610,1.420944
8745,42.708,14624.2,1.4211
8756,42.7617,14648.2,1.42197
8767,42.81543,14673.7,1.42437
8778,42.8691,14676.9,1.42612
8789,42.9229,14710.9,1.43001
8800,42.9766,14718.3,1.43113
8811,43.0303,14745.8,1.4322
8822,43.084,14765.6,1.43439
8833,43.1377,14783.2,1.435917
8844,43.1914,14780.1,1.43622
8855,43.2451,14827.9,1.4406
8866,43.2988,14814.7,1.44116
8877,43.3525,14854.7,1.44382
8888,43.40625,14875.7,1.44474
8899,43.46,14879.3,1.44502
8910,43.5137,14899.9,1.44788
8921,43.5674,14908.6,1.44929
8932,43.6211,14936.5,1.451962
8943,43.6748,14969.3,1.4553
8954,43.7285,14983.8,1.4554
8965,43.7822,15002.2,1.45666
8976,43.8359,15015.1,1.459178
8987,43.8896,14987.5,1.46089
8998,43.9434,15049.7,1.46309
9009,43.99707,15055.9,1.46388
9020,44.0508,15080.3,1.46539
9031,44.1045,15099.4,1.46725
9042,44.1582,15104,1.47022
9053,44.2119,15135.2,1.47241
9064,44.2656,15161.4,1.47544
9075,44.3193,15132.7,1.47492
9086,44.373,15197.4,1.47721
9097,44.4268,15211,1.4795
9108,44.4805,15235.3,1.48081
9119,44.53418,15254.5,1.48248
9130,44.5879,15223.9,1.48433
9141,44.6416,15287.3,1.486643
9152,44.6953,15288.1,1.488592
9163,44.749,15319.1,1.48979
9174,44.8027,15334,1.49133
9185,44.8564,15344.2,1.49297
9196,44.9102,15382.2,1.49499
9207,44.9639,15401.5,1.49791
9218,45.0176,15385.6,1.49873
9229,45.0713,15431.2,1.50179
9240,45.125,15452,1.50156
9251,45.1787,15462,1.50326
9262,45.2324,15496.2,1.505971
9273,45.2861,15469.7,1.50554
9284,45.3398,15530.8,1.51029
9295,45.3936,15541.3,1.51056
9306,45.4473,15564,1.51348
9317,45.501,15579,1.51543
9328,45.5547,15581.8,1.51802
9339,45.6084,15589.1,1.51685
9350,45.6621,15641.9,1.52082
9361,45.71582,15636.5,1.52313
9372,45.7695,15663,1.52349
9383,45.8232,15688.4,1.52712
9394,45.877,15685.5,1.52701
9405,45.9307,15718.6,1.52847
9416,45.9844,15709,1.52945
9427,46.0381,15750.7,1.53292
9438,46.0918,15761.6,1.53397
9449,46.1455,15778.8,1.53692
9460,46.1992,15813.9,1.53737
9471,46.25293,15818,1.53879
9482,46.3066,15831.3,1.54023
9493,46.3604,15866.6,1.54372
9504,46.4141,15880.9,1.546103
9515,46.4678,15905.1,1.54702
9526,46.5215,15926.6,1.55056
9537,46.5752,15909.8,1.550071
9548,46.6289,15961.1,1.55271
9559,46.6826,15963.7,1.55535
9570,46.7363,15990.9,1.55608
9581,46.79,16006.5,1.55779
9592,46.84375,16025.5,1.55727
9603,46.8975,16039.5,1.56058
9614,46.9512,16064.8,1.5652
9625,47.0049,16048.5,1.56454
9636,47.0586,16103.3,1.5667
9647,47.1123,16107,1.56854
9658,47.166,16143.2,1.57222
9669,47.2197,16160.9,1.57269
9680,47.2734,16167.4,1.57248
9691,47.3271,16190.9,1.57517
9702,47.3809,16201.3,1.57836
9713,47.43457,16214.4,1.5785
9724,47.4883,16246.1,1.58097
9735,47.542,16270.4,1.58318
9746,47.5957,16262.2,1.58422
9757,47.6494,16302.7,1.58741
9768,47.7031,16302.6,1.58716
9779,47.7568,16332.6,1.58995
9790,47.8105,16351.6,1.59365
9801,47.8643,16367,1.593605
9812,47.918,16400.2,1.59549
9823,47.97168,16403.3,1.59782
9834,48.0254,16427.5,1.59946
9845,48.0791,16444.6,1.60242
9856,48.1328,16460.4,1.60148
9867,48.1865,16476.7,1.60287
9878,48.2402,16509.5,1.6066
9889,48.2939,16474,1.60623
9900,48.3477,16528.4,1.6087
9911,48.4014,16526,1.61255
9922,48.4551,16563.3,1.613
9933,48.5088,16590.2,1.61568
9944,48.5625,16607.8,1.61653
9955,48.6162,16616.9,1.61788
9966,48.6699,16619.7,1.62085
9977,48.7236,16661.3,1.62294
9988,48.7773,16665.6,1.62381
9999,48.8311,16677.7,1.62587
10010,48.8848,16707.4,1.62888
10021,48.9385,16735.8,1.62911
10032,48.9922,16720.5,1.62929
10043,49.0459,16765.4,1.63266
10054,49.0996,16761.4,1.6349
10065,49.15332,16798.8,1.63712
10076,49.207,16819.3,1.63917
10087,49.2607,16826.5,1.63857
10098,49.3145,16852.9,1.64145
10109,49.3682,16877.9,1.64445
10120,49.4219,16875.6,1.64463
10131,49.4756,16907.7,1.64761
10142,49.5293,16934.3,1.65156
10153,49.583,16917.7,1.64971
10164,49.6367,16960.4,1.65547
10175,49.69043,16964.7,1.65465
10186,49.7441,17013.5,1.65668
10197,49.7979,17014.6,1.65764
10208,49.8516,17038.8,1.66014
10219,49.9053,17025.9,1.66169
10230,49.959,17070.8,1.66481
10241,50.0127,17085.9,1.66407
10252,50.0664,17118.4,1.66639
10263,50.1201,17113.2,1.66764
10274,50.1738,17147.9,1.671634
10285,50.2275,17162.9,1.67204
10296,50.28125,17168,1.67378
10307,50.335,17208.4,1.67711
10318,50.3887,17196.8,1.6774
10329,50.4424,17232.5,1.68085
10340,50.4961,17250.4,1.68075
10351,50.5498,17255.9,1.68179
10362,50.6035,17276.8,1.68478
10373,50.6572,17291.5,1.686793
10384,50.7109,17311.8,1.68866
10395,50.7646,17344.7,1.69237
10406,50.8184,17336,1.691857
10417,50.87207,17355.3,1.69382
10428,50.9258,17398.6,1.6946
10439,50.9795,17381.2,1.69658
10450,51.0332,17425.6,1.70022
10461,51.0869,17420.2,1.70111
10472,51.1406,17466.1,1.70251
10483,51.1943,17481.4,1.70465
10494,51.248,17503.3,1.70617
10505,51.3018,17526.4,1.70804
10516,51.3555,17540.8,1.71087
10527,51.40918,17537.4,1.7105
10538,51.4629,17585.4,1.716
10549,51.5166,17576.2,1.71309
10560,51.5703,17610.2,1.7156
10571,51.624,17634,1.720536
10582,51.6777,17632.5,1.72224
10593,51.7314,17676.3,1.72359
10604,51.7852,17683.4,1.72486
10615,51.8389,17689.7,1.72637
10626,51.8926,17715.2,1.72905
10637,51.9463,17730,1.73074
10648,52.0,17742.8,1.73132
10659,52.0537,17780.8,1.7351
10670,52.1074,17782.5,1.73342
10681,52.1611,17821.6,1.73767
10692,52.2148,17823.4,1.73857
10703,52.2686,17860.7,1.74129
10714,52.3223,17879,1.743502
10725,52.376,17838.7,1.7447
10736,52.4297,17907.7,1.74588
10747,52.4834,17920.3,1.74855
10758,52.5371,17936,1.74931
10769,52.5908,17949.1,1.75204
10780,52.6445,17969.9,1.75223
10791,52.6982,17979.5,1.75365
10802,52.752,18020.2,1.75784
10813,52.8057,17994.6,1.75794
10824,52.8594,18051.8,1.76191
10835,52.9131,18063.9,1.76202
10846,52.9668,18065.5,1.76396
10857,53.0205,18110.1,1.7666
10868,53.0742,18113,1.76618
10879,53.1279,18142.2,1.77172
10890,53.1816,18152.7,1.77174
10901,53.2354,18170.1,1.77404
10912,53.2891,18195.4,1.775077
10923,53.3428,18219.8,1.77831
10934,53.3965,18189.7,1.77718
10945,53.4502,18249.5,1.78266
10956,53.5039,18229.6,1.78253
10967,53.5576,18288.5,1.78357
10978,53.6113,18304.6,1.78667
10989,53.665,18299.4,1.788573
11000,53.71875,18332.4,1.78964
11011,53.7725,18338.8,1.79234
11022,53.8262,18350.8,1.79144
11033,53.8799,18389.3,1.79481
11044,53.9336,18395.4,1.79606
11055,53.9873,18416.5,1.79809
11066,54.041,18433.5,1.80082
11077,54.0947,18452.2,1.80049
11088,54.1484,18491.4,1.80456
11099,54.2021,18463.5,1.80432
11110,54.2559,18515,1.807732
11121,54.3096,18530.1,1.80834
11132,54.3633,18541.9,1.80988
11143,54.417,18566.9,1.81404
11154,54.4707,18574.7,1.81524
11165,54.5244,18583.7,1.81502
11176,54.5781,18621.5,1.81893
11187,54.6318,18623.8,1.81881
11198,54.6855,18644.3,1.82224
11209,54.7393,18666.6,1.82318
11220,54.793,18661.5,1.82357
11231,54.8467,18710.7,1.82872
11242,54.9004,18715,1.82895
11253,54.9541,18734.4,1.82971
11264,55.0078,18745.2,1.83023
11275,55.0615,18759.4,1.83487
11286,55.1152,18794,1.83722
11297,55.1689,18816.5,1.8381
11308,55.2227,18831.8,1.83836
11319,55.2764,18844.1,1.84052
11330,55.3301,18852.2,1.84284
11341,55.3838,18872.1,1.84369
11352,55.4375,18900.3,1.84719
11363,55.4912,18893.2,1.84785
11374,55.5449,18935.4,1.85051
11385,55.5986,18936.5,1.851562
11396,55.6523,18970.7,1.85294
11407,55.7061,18986,1.85652
11418,55.7598,18995.9,1.85685
11429,55.8135,19020.7,1.85761
11440,55.8672,19042.6,1.86097
11451,55.9209,19041.7,1.86174
11462,55.9746,19071.9,1.86514
11473,56.0283,19089.9,1.86759
11484,56.082,19096.4,1.86705
11495,56.1357,19137.6,1.87041
11506,56.1895,19141.1,1.87102
11517,56.2432,19175.9,1.87308
11528,56.2969,19179.7,1.87586
11539,56.3506,19189.2,1.87655
11550,56.4043,19218.1,1.87896
11561,56.458,19240.9,1.88018
11572,56.5117,19234.9,1.87905
11583,56.5654,19281.5,1.88529
11594,56.6191,19262.1,1.8856
11605,56.6729,19296.3,1.88753
11616,56.7266,19333.1,1.89075
11627,56.7803,19301.3,1.88998
11638,56.834,19372.3,1.89314
11649,56.8877,19371.4,1.8939
11660,56.9414,19404.5,1.89595
11671,56.9951,19417.5,1.89827
11682,57.0488,19423,1.89994
11693,57.1025,19438.9,1.9017
11704,57.15625,19466.2,1.904566
11715,57.21,19452.8,1.90499
11726,57.2637,19501.7,1.90634
11737,57.3174,19511,1.907815
11748,57.3711,19537,1.91013
11759,57.4248,19560.8,1.91258
11770,57.4785,19556.4,1.91322
11781,57.5322,19597.7,1.91623
11792,57.5859,19600.1,1.91811
11803,57.6396,19622,1.91978
11814,57.6934,19638.1,1.92048
11825,57.7471,19666.7,1.922797
11836,57.8008,19667.8,1.92406
11847,57.8545,19711.3,1.92803
11858,57.9082,19665.1,1.92848
11869,57.9619,19739.6,1.92981
11880,58.0156,19741.2,1.93338
11891,58.0693,19770.3,1.93394
11902,58.123,19796,1.93563
11913,58.1768,19792.7,1.93821
11924,58.2305,19831.4,1.94
11935,58.2842,19830.5,1.94263
11946,58.3379,19853.6,1.94306
11957,58.3916,19871.5,1.94351
11968,58.4453,19888.9,1.94658
11979,58.499,19908,1.94768
11990,58.5527,19948.5,1.95146
12001,58.6064,19928.4,1.95159
12012,58.6602,19977.3,1.95376
12023,58.7139,19991.1,1.95599
12034,58.7676,19985.3,1.95671
12045,58.8213,20023,1.95943
12056,58.875,20021.1,1.95943
12067,58.9287,20064.7,1.96274
12078,58.9824,20073.7,1.964
12089,59.0361,20079,1.96601
12100,59.0898,20106,1.96577
12111,59.1436,20139.5,1.96985
12122,59.1973,20119,1.96982
12133,59.251,20162.7,1.97411
12144,59.3047,20173.4,1.97556
12155,59.3584,20199.2,1.97806
12166,59.4121,20219.4,1.97902
12177,59.4658,20216.5,1.98098
12188,59.5195,20261.5,1.98195
12199,59.5732,20263.1,1.98455
12210,59.627,20292.8,1.98694
12221,59.6807,20312.2,1.98931
12232,59.7344,20320.7,1.98734
12243,59.7881,20334.2,1.98988
12254,59.8418,20370.6,1.993526
12265,59.8955,20342.8,1.99319
12276,59.9492,20396.1,1.9974
12287,60.0029,20408.1,1.99822
12298,60.0566,20429,2.00015
12309,60.1104,20449.5,2.001502
12320,60.1641,20450.6,2.00412
12331,60.2178,20489.6,2.00643
12342,60.2715,20502.3,2.00667
12353,60.3252,20498.2,2.00839
12364,60.3789,20537.5,2.01074
12375,60.4326,20558.7,2.01349
12386,60.4863,20565.3,2.01304
12397,60.54,20594.5,2.01813
12408,60.59375,20574.7,2.0175
12419,60.6475,20629.4,2.02051
12430,60.7012,20634,2.02014
12441,60.7549,20659,2.02358
12452,60.8086,20681.8,2.02682
12463,60.8623,20689.9,2.02769
12474,60.916,20708,2.02954
12485,60.9697,20736.9,2.03052
12496,61.0234,20746.5,2.03125
12507,61.0771,20754.5,2.03503
12518,61.1309,20781.4,2.03742
12529,61.1846,20791.1,2.03687
12540,61.2383,20826.4,2.03925
12551,61.292,20814.7,2.0397
12562,61.3457,20859.2,2.04442
12573,61.3994,20867.9,2.04421
12584,61.4531,20867.4,2.04685
12595,61.5068,20915.1,2.04954
12606,61.5605,20927.8,2.050631
12617,61.6143,20921.8,2.05135
12628,61.668,20954.8,2.05312
12639,61.7217,20964.6,2.05488
12650,61.7754,20984,2.0575
12661,61.8291,21013.9,2.0592
12672,61.8828,21020.7,2.06069
12683,61.9365,21050.5,2.06465
12694,61.9902,21051.2,2.06313
12705,62.0439,21083.9,2.06806
12716,62.0977,21098,2.06809
12727,62.1514,21110.4,2.06959
12738,62.2051,21127.9,2.07184
12749,62.2588,21156.6,2.07468
12760,62.3125,21161.5,2.07401
12771,62.3662,21190.4,2.07841
12782,62.4199,21192.8,2.07862
12793,62.4736,21219.3,2.08027
12804,62.5273,21250.7,2.08252
12815,62.5811,21235.9,2.08448
12826,62.6348,21280,2.08511
12837,62.6885,21283.2,2.08721
12848,62.7422,21302.9,2.08756
12859,62.7959,21317,2.09101
12870,62.8496,21339.2,2.09397
12881,62.9033,21364.1,2.09542
12892,62.957,21384.9,2.09737
12903,63.0107,21390.1,2.09784
12914,63.0645,21415.3,2.10122
12925,63.1182,21441.5,2.10218
12936,63.1719,21453.5,2.102041
12947,63.2256,21472.4,2.1059
12958,63.2793,21468.9,2.10878
12969,63.333,21511.6,2.11011
12980,63.3867,21513,2.11136
12991,63.4404,21539.6,2.1138
13002,63.4941,21559.2,2.11416
13013,63.5479,21577.3,2.11723
13024,63.6016,21584.8,2.11698
13035,63.6553,21619.8,2.1203
13046,63.709,21602.5,2.12097
13057,63.7627,21648.7,2.12397
13068,63.8164,21650.3,2.1267
13079,63.8701,21672.7,2.12641
13090,63.9238,21701,2.13001
13101,63.9775,21696.9,2.13118
13112,64.03125,21731.7,2.13144
13123,64.085,21742.1,2.1341
13134,64.1387,21760.9,2.13571
13145,64.1924,21784,2.13827
13156,64.2461,21808.9,2.14016
13167,64.2998,21811.1,2.13977
13178,64.3535,21843.6,2.14422
13189,64.4072,21838.8,2.14486
13200,64.4609,21875.6,2.14746
13211,64.5146,21900.2,2.14943
13222,64.5684,21905,2.15083
13233,64.62207,21941.2,2.15373
13244,64.6758,21940.5,2.15495
13255,64.7295,21955.8,2.1573
13266,64.7832,21986.6,2.1592
13277,64.8369,21994.5,2.160269
13288,64.8906,22012.7,2.16146
13299,64.9443,22040.5,2.16305
13310,64.998,21993.5,2.16436
13321,65.0518,22083.3,2.16851
13332,65.1055,22088,2.16821
13343,65.15918,22106.3,2.16973
13354,65.2129,22119.1,2.17346
13365,65.2666,22121.4,2.17448
13376,65.3203,22155.9,2.17657
13387,65.374,22155.9,2.17776
13398,65.4277,22165.2,2.17748
13409,65.4814,22188.9,2.18128
13420,65.5352,22221.2,2.18301
13431,65.5889,22232.4,2.18549
13442,65.6426,22273.6,2.18742
13453,65.6963,22246.6,2.18716
13464,65.75,22297,2.19021
13475,65.8037,22303.3,2.1924
13486,65.8574,22327.4,2.19272
13497,65.9111,22341.5,2.1954
13508,65.9648,22340.4,2.1955
13519,66.0186,22368.5,2.19855
13530,66.0723,22402.4,2.20101
13541,66.126,22413.1,2.20119
13552,66.1797,22433.6,2.20369
13563,66.2334,22452.3,2.20667
13574,66.2871,22451.7,2.20735
13585,66.34082,22501.8,2.21263
13596,66.3945,22459.8,2.20983
13607,66.4482,22528.1,2.21311
13618,66.502,22526.1,2.215029
13629,66.5557,22551.3,2.21731
13640,66.6094,22574.8,2.21853
13651,66.6631,22593.7,2.21983
13662,66.7168,22594.2,2.22013
13673,66.7705,22625.7,2.22336
13684,66.8242,22604.8,2.22507
13695,66.87793,22654.4,2.22823
13706,66.9316,22682.4,2.22844
13717,66.9854,22655.8,2.229943
13728,67.0391,22709.9,2.234
13739,67.0928,22711,2.23506
13750,67.1465,22751.7,2.23756
13761,67.2002,22762.7,2.23829
13772,67.2539,22771.6,2.24022
13783,67.3076,22791.9,2.24115
13794,67.3613,22807.9,2.24457
13805,67.415,22801.8,2.24447
13816,67.46875,22853.9,2.24719
13827,67.5225,22874.6,2.24765
13838,67.5762,22875.7,2.25102
13849,67.6299,22905.6,2.25417
13860,67.6836,22902,2.25199
13871,67.7373,22940.5,2.25644
13882,67.791,22939.8,2.25777
13893,67.8447,22962.1,2.25774
13904,67.8984,23001.4,2.26202
13915,67.9521,23019.7,2.26128
13926,68.0059,23032,2.2638
13937,68.05957,23055.7,2.26722
13948,68.1133,23053.6,2.2669
13959,68.167,23091,2.2708
13970,68.2207,23088.1,2.2714
13981,68.2744,23095.4,2.27419
13992,68.3281,23135.4,2.27734
14003,68.3818,23129.1,2.27735
14014,68.4355,23164.1,2.27813
14025,68.4893,23158.3,2.27985
14036,68.543,23201.6,2.28278
14047,68.59668,23221.7,2.284745
14058,68.6504,23236.9,2.28729
14069,68.7041,23258.7,2.28858
14080,68.7578,23290.9,2.29026
14091,68.8115,23251.4,2.29047
14102,68.8652,23309.9,2.29475
14113,68.9189,23316,2.293844
14124,68.9727,23323,2.29605
14135,69.0264,23365,2.29993
14146,69.0801,23360.4,2.301271
14157,69.1338,23397.3,2.30278
14168,69.1875,23411.1,2.30358
14179,69.2412,23419.7,2.305989
14190,69.2949,23452.5,2.30847
14201,69.3486,23465.4,2.31038
14212,69.4023,23464.5,2.31131
14223,69.4561,23514.8,2.31507
14234,69.5098,23497.1,2.316
14245,69.5635,23546.4,2.3166
14256,69.6172,23564,2.31931
14267,69.6709,23556.6,2.321198
14278,69.7246,23601.3,2.32247
14289,69.77832,23593.5,2.3237
14300,69.832,23629.1,2.326473
14311,69.8857,23642.7,2.32871
14322,69.9395,23660.7,2.32988
14333,69.9932,23680.1,2.331166
14344,70.0469,23700.9,2.33275
14355,70.1006,23689.4,2.33277
14366,70.1543,23731,2.33714
14377,70.208,23745.7,2.337868
14388,70.2617,23758.7,2.3397
14399,70.31543,23797.9,2.34245
14410,70.3691,23791.3,2.34404
14421,70.4229,23823.2,2.34621
14432,70.4766,23836.8,2.34688
14443,70.5303,23856.2,2.34872
14454,70.584,23866.4,2.35088
14465,70.6377,23887.4,2.35225
14476,70.6914,23898.9,2.35449
14487,70.7451,23921.8,2.35623
14498,70.7988,23893.7,2.35577
14509,70.8525,23949.5,2.36162
14520,70.90625,23969.7,2.36252
14531,70.96,23992.8,2.36342
14542,71.0137,24007,2.366
14553,71.0674,23996.2,2.36688
14564,71.1211,24055.5,2.36927
14575,71.1748,24068.2,2.37165
14586,71.2285,24077.9,2.37255
14597,71.2822,24104.6,2.37531
14608,71.3359,24117.5,2.3753
14619,71.3896,24099.5,2.37801
14630,71.4434,24170.4,2.38244
14641,71.49707,24154.7,2.38097
14652,71.5508,24203.2,2.38466
14663,71.6045,24216.5,2.38711
14674,71.6582,24230.4,2.38662
14685,71.7119,24260.4,2.38931
14696,71.7656,24260.8,2.39005
14707,71.8193,24272.5,2.393548
14718,71.873,24307.8,2.39582
14729,71.9268,24302.2,2.39507
14740,71.9805,24333.7,2.39741
14751,72.03418,24353.6,2.40053
14762,72.0879,24340.4,2.40017
14773,72.1416,24401.2,2.40487
14784,72.1953,24382.3,2.40521
14795,72.249,24436.3,2.40775
14806,72.3027,24431.7,2.4099
14817,72.3564,24452.6,2.41103
14828,72.4102,24471,2.41313
14839,72.4639,24494.5,2.41522
14850,72.5176,24497.5,2.41625
14861,72.5713,24520.4,2.41826
14872,72.625,24535.9,2.41842
14883,72.6787,24547.5,2.421771
14894,72.7324,24587.9,2.42324
14905,72.7861,24568.6,2.42398
14916,72.8398,24617.8,2.42752
14927,72.8936,24616.2,2.42871
14938,72.9473,24637.4,2.43029
14949,73.001,24652.4,2.43058
14960,73.0547,24661.6,2.43422
14971,73.1084,24683.7,2.436373
14982,73.1621,24710.7,2.43668
14993,73.21582,24708.3,2.43797
15004,73.2695,24731.7,2.440356
15015,73.3232,24752.8,2.44232
15026,73.377,24778.1,2.44441
15037,73.4307,24813.3,2.44822
15048,73.4844,24784.3,2.447504
15059,73.5381,24840.4,2.44927
15070,73.5918,24845.3,2.45225
15081,73.6455,24855.8,2.45185
15092,73.6992,24862.1,2.45447
15103,73.75293,24892,2.45766
15114,73.8066,24897.5,2.45737
15125,73.8604,24939.3,2.46155
15136,73.9141,24941.5,2.4617
15147,73.9678,24967.5,2.46501
15158,74.0215,24994.9,2.46646
15169,74.0752,24980.1,2.466393
15180,74.1289,25022.6,2.47008
15191,74.1826,25014.6,2.46949
15202,74.2363,25057.7,2.47439
15213,74.29,25064.6,2.47483
15224,74.34375,25079.5,2.47563
15235,74.3975,25092.9,2.47804
15246,74.4512,25113.3,2.47964
15257,74.5049,25135.2,2.48041
15268,74.5586,25156.5,2.48382
15279,74.6123,25164.2,2.4873
15290,74.666,25184.4,2.48622
15301,74.7197,25207.1,2.48985
15312,74.7734,25207.9,2.48914
15323,74.8271,25246,2.49249
15334,74.8809,25250.1,2.49426
15345,74.93457,25275.2,2.49554
15356,74.9883,25295.3,2.49786
15367,75.042,25310.9,2.49991
15378,75.0957,25331.9,2.50284
15389,75.1494,25341.7,2.50284
15400,75.2031,25346.5,2.50296
15411,75.2568,25371.8,2.50683
15422,75.3105,25392.8,2.50725
15433,75.3643,25405.8,2.51071
15444,75.418,25433,2.51244
15455,75.47168,25432.9,2.51473
15466,75.5254,25464.8,2.51554
15477,75.5791,25472.5,2.51694
15488,75.6328,25493.8,2.52058
15499,75.6865,25506.7,2.52046
15510,75.7402,25531.7,2.52193
15521,75.7939,25536,2.52223
15532,75.8477,25565.9,2.52757
15543,75.9014,25564.9,2.52744
15554,75.9551,25595.9,2.52932
15565,76.0088,25603.2,2.5309
15576,76.0625,25624.6,2.5328
15587,76.1162,25653.1,2.53763
15598,76.1699,25659.9,2.53688
15609,76.2236,25688.9,2.5383
15620,76.2773,25702.5,2.54077
15631,76.3311,25707.8,2.54301
15642,76.3848,25715.7,2.54377
15653,76.4385,25739.6,2.54519
15664,76.4922,25745.2,2.54622
15675,76.5459,25786.8,2.55001
15686,76.5996,25775,2.55305
15697,76.65332,25831.8,2.55459
15708,76.707,25834.4,2.55249
15719,76.7607,25825.6,2.55623
15730,76.8145,25870.5,2.558737
15741,76.8682,25871.7,2.55987
15752,76.9219,25904,2.5615
15763,76.9756,25910.3,2.56424
15774,77.0293,25933.3,2.56576
15785,77.083,25954.9,2.56639
15796,77.1367,25977.9,2.5694
15807,77.19043,25970.3,2.56942
15818,77.2441,26009.8,2.57423
15829,77.2979,25999.8,2.57384
15840,77.3516,26039.2,2.57568
15851,77.4053,26058.7,2.57833
15862,77.459,26049.3,2.57923
15873,77.5127,26091.9,2.58136
15884,77.5664,26105.2,2.58314
15895,77.6201,26119.6,2.58553
15906,77.6738,26152.7,2.58842
15917,77.7275,26154.2,2.58947
15928,77.78125,26175.1,2.59043
15939,77.835,26203.8,2.59317
15950,77.8887,26200.8,2.59371
15961,77.9424,26231.9,2.59507
15962,77.9473,-243.089,2.883481