File: ASM109_2021_data/MTS/UD/MTS_UD_13.csv
,Time [s],Load [N],Displacement [mm]
0,0.0078125,-234.893,0.00120459
14,0.0761719,-228.239,0.00277259
28,0.144531,-220.407,0.00429664
42,0.212891,-213.864,0.00448583
56,0.28125,-196.666,0.0105754
70,0.349609,-168.387,0.00977464
84,0.417969,-162.546,0.0154132
98,0.486328,-122.044,0.0157731
112,0.5546875,-120.613,0.0174444
126,0.623047,-87.6387,0.0211516
140,0.691406,-69.439,0.0215792
154,0.759766,-34.8885,0.0255142
168,0.828125,-42.0909,0.0285534
182,0.896484,13.5698,0.0293046
196,0.964844,22.6384,0.03216
210,1.0332,45.9677,0.0337808
224,1.10156,72.754,0.0375498
238,1.16992,86.3991,0.0364632
252,1.23828,104.048,0.0408393
266,1.30664,159.295,0.0436405
280,1.375,159.43,0.0452526
294,1.44336,191.297,0.0462927
308,1.51172,220.927,0.0519633
322,1.58008,240.142,0.0515946
336,1.64844,261.806,0.0548703
350,1.7168,288.492,0.0568214
364,1.78516,326.711,0.058793
378,1.85352,339.689,0.0596272
392,1.921875,353.533,0.0640311
406,1.99023,393.406,0.065623
420,2.05859,405.006,0.069426
434,2.12695,430.371,0.0695642
448,2.19531,459.557,0.0735027
462,2.26367,480.483,0.0750728
476,2.33203,486.127,0.0770933
490,2.40039,526.64,0.0795941
504,2.46875,543.723,0.0806073
518,2.53711,570.608,0.0837208
532,2.60547,595.715,0.0872105
546,2.67383,634.807,0.088458
560,2.74219,627.734,0.091695
574,2.81055,678.08,0.0935638
588,2.87891,698.94,0.0949141
602,2.94727,711.602,0.0961161
616,3.015625,731.15,0.0999082
630,3.08398,770.67,0.102562
644,3.15234,787.843,0.103689
658,3.2207,801.522,0.105696
672,3.28906,830.63,0.109677
686,3.35742,857.554,0.10996
700,3.42578,872.56,0.113373
714,3.49414,908.269,0.115204
728,3.5625,916.069,0.118679
742,3.63086,949.78,0.119063
756,3.69922,960.791,0.122078
770,3.76758,999.08,0.123753
784,3.83594,1017.6,0.127297
798,3.9043,1047.92,0.1283097
812,3.97266,1066.42,0.132215
826,4.04102,1069.81,0.132261
840,4.109375,1110.97,0.136059
854,4.17773,1139.78,0.138226
868,4.24609,1152.85,0.138456
882,4.31445,1184.72,0.141654
896,4.38281,1209.62,0.144088
910,4.45117,1214.52,0.146063
924,4.51953,1249.23,0.148463
938,4.58789,1281.12,0.151502
952,4.65625,1302.8,0.153047
966,4.72461,1333.32,0.156458
980,4.79297,1343.07,0.158539
994,4.86133,1372.22,0.159381
1008,4.92969,1382.8,0.163065
1022,4.99805,1423.86,0.165372
1036,5.06641,1440.79,0.1679
1050,5.13477,1470.8,0.167767
1064,5.203125,1485.66,0.1713679
1078,5.27148,1521.26,0.175846
1092,5.33984,1532.31,0.177342
1106,5.4082,1569.18,0.17742
1120,5.47656,1574.95,0.180927
1134,5.54492,1605.11,0.182
1148,5.61328,1622.19,0.187464
1162,5.68164,1651.79,0.187487
1176,5.75,1662.06,0.189367
1190,5.81836,1705.04,0.193307
1204,5.88672,1724.99,0.195881
1218,5.95508,1743.24,0.197878
1232,6.02344,1768.62,0.200257
1246,6.0918,1787.75,0.200489
1260,6.16016,1802.65,0.203247
1274,6.22852,1851.06,0.205371
1288,6.296875,1864.82,0.208139
1302,6.36523,1889.43,0.211063
1316,6.43359,1905.91,0.2136199
1330,6.50195,1947.73,0.215114
1344,6.57031,1956.04,0.217258
1358,6.63867,1986.4,0.219779
1372,6.70703,2007.16,0.22191
1386,6.77539,2041.61,0.223971
1400,6.84375,2048.26,0.227935
1414,6.91211,2085.14,0.228159
1428,6.98047,2098.74,0.233278
1442,7.04883,2113.33,0.232685
1456,7.11719,2146.34,0.234915
1470,7.18555,2186.82,0.239322
1484,7.25391,2162.89,0.239377
1498,7.32227,2220.81,0.241094
1512,7.390625,2247.82,0.24574
1526,7.45898,2254.25,0.246934
1540,7.52734,2275.71,0.250247
1554,7.5957,2312.12,0.251213
1568,7.66406,2330.26,0.255042
1582,7.73242,2346.6,0.254872
1596,7.80078,2378.56,0.259627
1610,7.86914,2414.46,0.260165
1624,7.9375,2427.94,0.264277
1638,8.00586,2455.51,0.265753
1652,8.07422,2478.26,0.268072
1666,8.14258,2500.12,0.271476
1680,8.21094,2533.48,0.274019
1694,8.2793,2558.86,0.274255
1708,8.34766,2562.52,0.276967
1722,8.41602,2601.73,0.279151
1736,8.484375,2618.89,0.282561
1750,8.55273,2643.96,0.282167
1764,8.62109,2667.67,0.286349
1778,8.68945,2694.09,0.288857
1792,8.75781,2710.42,0.290961
1806,8.82617,2726.02,0.293793
1820,8.89453,2749.08,0.294902
1834,8.96289,2776.54,0.297851
1848,9.03125,2775.21,0.29941
1862,9.09961,2822.29,0.301967
1876,9.16797,2841.79,0.304769
1890,9.23633,2866.75,0.306485
1904,9.30469,2899.96,0.309025
1918,9.37305,2922.51,0.311635
1932,9.44141,2936.35,0.313067
1946,9.50977,2968.71,0.317357
1960,9.578125,2984.97,0.318726
1974,9.64648,3011.8,0.319742
1988,9.71484,3028.48,0.32327
2002,9.7832,3065.3,0.323223
2016,9.85156,3073.67,0.327493
2030,9.91992,3108.97,0.328058
2044,9.98828,3125.8,0.333132
2058,10.0566,3136.05,0.3333731
2072,10.125,3151.39,0.33682
2086,10.1934,3190,0.337258
2100,10.2617,3209.65,0.340288
2114,10.3301,3247.37,0.343172
2128,10.3984,3255.07,0.345616
2142,10.4668,3288.98,0.345944
2156,10.5352,3293.68,0.35004
2170,10.6035,3336,0.350728
2184,10.6719,3349.46,0.3538301
2198,10.7402,3376.49,0.356227
2212,10.8086,3411.77,0.359126
2226,10.877,3423.53,0.360317
2240,10.9453,3448.32,0.363585
2254,11.0137,3460.13,0.365533
2268,11.082,3490.77,0.368547
2282,11.1504,3515.13,0.369525
2296,11.21875,3531.52,0.372666
2310,11.2871,3570.27,0.374727
2324,11.3555,3562.26,0.376161
2338,11.4238,3596.95,0.377735
2352,11.4922,3625.5,0.381125
2366,11.5605,3649.04,0.382115
2380,11.6289,3680.09,0.387259
2394,11.6973,3707.45,0.388553
2408,11.7656,3734.71,0.391125
2422,11.834,3756.98,0.392889
2436,11.9023,3774.51,0.396183
2450,11.9707,3795.94,0.3974483
2464,12.0391,3812.78,0.399764
2478,12.1074,3852.44,0.40113
2492,12.1758,3863.29,0.404047
2506,12.2441,3893.12,0.4046241
2520,12.3125,3901.64,0.40878
2534,12.3809,3946.01,0.411254
2548,12.4492,3949.71,0.414398
2562,12.5176,3974.91,0.416527
2576,12.5859,3992.67,0.418308
2590,12.6543,4031.41,0.419464
2604,12.7227,4030.57,0.42266
2618,12.791,4067.42,0.424979
2632,12.8594,4082.32,0.427124
2646,12.9277,4116.69,0.427883
2660,12.9961,4140.56,0.430865
2674,13.0645,4149.92,0.43362
2688,13.1328,4178.69,0.436364
2702,13.2012,4204.97,0.438317
2716,13.2695,4220.12,0.440693
2730,13.3379,4248,0.440047
2744,13.40625,4276.26,0.444583
2758,13.4746,4308.06,0.447083
2772,13.543,4317.96,0.449239
2786,13.6113,4353.27,0.45035
2800,13.6797,4371.36,0.454731
2814,13.748,4394.64,0.455545
2828,13.8164,4410.22,0.458968
2842,13.8848,4449.29,0.460118
2856,13.9531,4468.3,0.463567
2870,14.0215,4493.39,0.465196
2884,14.0898,4497.26,0.46763
2898,14.1582,4540.36,0.470288
2912,14.2266,4528.54,0.472158
2926,14.2949,4586.23,0.47449
2940,14.3633,4602.29,0.477525
2954,14.4316,4616.15,0.479117
2968,14.5,4648.28,0.481547
2982,14.5684,4683.69,0.482701
2996,14.6367,4676.55,0.486266
3010,14.7051,4711.81,0.488335
3024,14.7734,4730.93,0.490351
3038,14.8418,4757.31,0.4926
3052,14.9102,4792.71,0.495805
3066,14.9785,4812.12,0.497164
3080,15.0469,4824.15,0.499794
3094,15.1152,4849.93,0.501145
3108,15.1836,4874.4,0.50519
3122,15.252,4902.57,0.506621
3136,15.3203,4915.42,0.509496
3150,15.3887,4959.07,0.512228
3164,15.457,4968.53,0.51453
3178,15.5254,4994.4,0.516774
3192,15.59375,5012.54,0.518302
3206,15.6621,5041.77,0.521229
3220,15.7305,5051.6,0.523419
3234,15.7988,5094.15,0.525778
3248,15.8672,5100.5,0.526851
3262,15.9355,5124.97,0.529113
3276,16.0039,5157.35,0.531447
3290,16.0723,5187.68,0.534063
3304,16.1406,5196.67,0.536867
3318,16.209,5211.19,0.536657
3332,16.2773,5251.07,0.541372
3346,16.3457,5273.14,0.542255
3360,16.4141,5288.54,0.54622
3374,16.4824,5316.67,0.548549
3388,16.5508,5320.36,0.549204
3402,16.6191,5356.44,0.551211
3416,16.6875,5383.81,0.5535205
3430,16.7559,5401.18,0.556186
3444,16.8242,5403.77,0.560587
3458,16.8926,5442.18,0.561223
3472,16.9609,5470.75,0.564913
3486,17.0293,5481.06,0.565311
3500,17.0977,5515.49,0.569445
3514,17.166,5543.31,0.571118
3528,17.2344,5564.33,0.573224
3542,17.3027,5603.1,0.576404
3556,17.3711,5616.51,0.577875
3570,17.4395,5633.43,0.580646
3584,17.5078,5659.61,0.58346
3598,17.5762,5684.97,0.584388
3612,17.6445,5702.43,0.585851
3626,17.7129,5728.9,0.58858
3640,17.78125,5751.03,0.591289
3654,17.8496,5763.36,0.59287
3668,17.918,5785.48,0.596235
3682,17.9863,5818.42,0.598444
3696,18.0547,5834.72,0.601865
3710,18.123,5858.47,0.603451
3724,18.1914,5882.94,0.605352
3738,18.2598,5920,0.606797
3752,18.3281,5922.52,0.609281
3766,18.3965,5969.75,0.612705
3780,18.4648,5983.8,0.614729
3794,18.5332,6004.45,0.61641
3808,18.6016,6028.7,0.620318
3822,18.6699,6055.84,0.620292
3836,18.7383,6056.05,0.623509
3850,18.8066,6105,0.627168
3864,18.875,6121.39,0.629895
3878,18.9434,6146.18,0.629739
3892,19.0117,6168.32,0.632519
3906,19.0801,6196.83,0.633782
3920,19.1484,6206.43,0.636196
3934,19.2168,6230.46,0.6378054
3948,19.2852,6248.11,0.642363
3962,19.3535,6271.58,0.643613
3976,19.4219,6286.02,0.64715
3990,19.4902,6321.82,0.648542
4004,19.5586,6342.01,0.651709
4018,19.627,6362.97,0.652889
4032,19.6953,6393.72,0.656551
4046,19.7637,6420.19,0.657803
4060,19.832,6428.38,0.659609
4074,19.9004,6472.94,0.662247
4088,19.96875,6491.83,0.665191
4102,20.0371,6506.42,0.666685
4116,20.1055,6533.77,0.670464
4130,20.1738,6552.86,0.66922
4144,20.2422,6561.83,0.673451
4158,20.3105,6603.17,0.676125
4172,20.3789,6618.84,0.678244
4186,20.4473,6640.37,0.67951
4200,20.5156,6654.78,0.682851
4214,20.584,6688.21,0.685834
4228,20.6523,6695.87,0.686444
4242,20.7207,6742.71,0.68808
4256,20.7891,6756.75,0.691395
4270,20.8574,6775.42,0.69277
4284,20.9258,6801.77,0.695803
4298,20.9941,6830.08,0.698851
4312,21.0625,6843.14,0.700944
4326,21.1309,6870.54,0.702429
4340,21.1992,6896.74,0.704764
4354,21.2676,6914.3,0.707232
4368,21.3359,6908.84,0.7102
4382,21.4043,6963.11,0.711295
4396,21.4727,6971.97,0.714451
4410,21.541,6994.16,0.715365
4424,21.6094,7020.82,0.720574
4438,21.6777,7053.44,0.720468
4452,21.7461,7066.45,0.723761
4466,21.8145,7094.62,0.726123
4480,21.8828,7121.05,0.728693
4494,21.9512,7147.22,0.730017
4508,22.0195,7150.25,0.733388
4522,22.0879,7195.94,0.734849
4536,22.15625,7189.46,0.735634
4550,22.2246,7226.63,0.7395789
4564,22.293,7249,0.740874
4578,22.3613,7280.22,0.745455
4592,22.4297,7286.54,0.74637
4606,22.498,7324.01,0.749793
4620,22.5664,7346.91,0.751099
4634,22.6348,7350.71,0.752719
4648,22.7031,7395.67,0.755518
4662,22.7715,7414.87,0.757339
4676,22.8398,7413.8,0.760044
4690,22.9082,7460.63,0.761818
4704,22.9766,7480.16,0.765218
4718,23.0449,7515.03,0.767285
4732,23.1133,7524.67,0.769092
4746,23.1816,7560.17,0.772199
4760,23.25,7558.5,0.772206
4774,23.3184,7592.61,0.775399
4788,23.3867,7625.46,0.77932
4802,23.4551,7639.86,0.779875
4816,23.5234,7656.44,0.782872
4830,23.5918,7681.72,0.784198
4844,23.6602,7691.43,0.7857306
4858,23.7285,7713.81,0.788058
4872,23.7969,7732.92,0.791599
4886,23.8652,7782.01,0.792219
4900,23.9336,7797.03,0.796887
4914,24.002,7835,0.798919
4928,24.0703,7845.52,0.802299
4942,24.1387,7860.19,0.802536
4956,24.207,7891.21,0.806442
4970,24.2754,7913.69,0.808741
4984,24.34375,7921.99,0.811495
4998,24.4121,7957.42,0.811719
5012,24.4805,7974.41,0.814686
5026,24.5488,8002.18,0.816189
5040,24.6172,8017.12,0.8192063
5054,24.6855,8046.46,0.82224
5068,24.7539,8053.45,0.823159
5082,24.8223,8095.21,0.825123
5096,24.8906,8112.6,0.829056
5110,24.959,8137.15,0.829463
5124,25.0273,8148.43,0.8314231
5138,25.0957,8182.38,0.833486
5152,25.1641,8200.79,0.837529
5166,25.2324,8226.64,0.838093
5180,25.3008,8241.77,0.843059
5194,25.3691,8273.25,0.844013
5208,25.4375,8289.46,0.846495
5222,25.5059,8326.42,0.848104
5236,25.5742,8353.04,0.85071
5250,25.6426,8350.59,0.854121
5264,25.7109,8375.73,0.855949
5278,25.7793,8411.79,0.857286
5292,25.8477,8425.57,0.860264
5306,25.916,8462.16,0.862312
5320,25.9844,8470.11,0.864526
5334,26.0527,8496.99,0.866532
5348,26.1211,8518.63,0.869423
5362,26.1895,8547.98,0.871379
5376,26.2578,8563.2,0.872105
5390,26.3262,8579.92,0.874336
5404,26.3945,8599.13,0.877084
5418,26.4629,8615.78,0.880189
5432,26.53125,8650.44,0.882335
5446,26.5996,8684.29,0.8861
5460,26.668,8691.31,0.887172
5474,26.7363,8709.9,0.888968
5488,26.8047,8738.67,0.893438
5502,26.873,8770.14,0.894191
5516,26.9414,8786.75,0.896848
5530,27.0098,8812.58,0.897435
5544,27.0781,8824.4,0.900389
5558,27.1465,8854.38,0.90223
5572,27.2148,8857.3,0.905237
5586,27.2832,8907.87,0.907946
5600,27.3516,8922.54,0.910431
5614,27.4199,8959.46,0.913734
5628,27.4883,8982.96,0.9165926
5642,27.5566,9006.68,0.916623
5656,27.625,9011.17,0.92063
5670,27.6934,9049.07,0.921725
5684,27.7617,9064.1,0.9240123
5698,27.8301,9081.73,0.92633
5712,27.8984,9106.93,0.928445
5726,27.9668,9136.74,0.930302
5740,28.0352,9133.92,0.932159
5754,28.1035,9178.49,0.934855
5768,28.1719,9199.63,0.938233
5782,28.2402,9216.28,0.939686
5796,28.3086,9232.72,0.943503
5810,28.377,9276.39,0.946791
5824,28.4453,9275.71,0.945741
5838,28.5137,9309.85,0.951051
5852,28.582,9329.08,0.951696
5866,28.6504,9348.43,0.952621
5880,28.71875,9385.74,0.956173
5894,28.7871,9392.78,0.958227
5908,28.8555,9417.22,0.959912
5922,28.9238,9450.43,0.963049
5936,28.9922,9467.75,0.965459
5950,29.0605,9492.06,0.967414
5964,29.1289,9501.59,0.969351
5978,29.1973,9546.87,0.971806
5992,29.2656,9555.25,0.974272
6006,29.334,9581.45,0.975441
6020,29.4023,9614.13,0.979624
6034,29.4707,9635.74,0.981868
6048,29.5391,9622.21,0.9838286
6062,29.6074,9661.89,0.984204
6076,29.6758,9700.2,0.988517
6090,29.7441,9719.24,0.990405
6104,29.8125,9735.3,0.992325
6118,29.8809,9765.88,0.994947
6132,29.9492,9780.21,0.997241
6146,30.0176,9806.2,1.0006
6160,30.0859,9834.79,1.0023
6174,30.1543,9857.52,1.00443
6188,30.2227,9859.99,1.00574
6202,30.291,9901.3,1.0086
6216,30.3594,9917.92,1.01244
6230,30.4277,9935.27,1.012174
6244,30.4961,9957.49,1.01544
6258,30.5645,9970.88,1.01608
6272,30.6328,9992.37,1.01948
6286,30.7012,10033.1,1.02224
6300,30.7695,10046.8,1.02454
6314,30.8379,10072.5,1.02552
6328,30.90625,10098.4,1.03029
6342,30.9746,10122.9,1.03112
6356,31.043,10130.5,1.03334
6370,31.1113,10155.3,1.03479
6384,31.1797,10177.2,1.03904
6398,31.248,10202.8,1.03959
6412,31.3164,10236.9,1.04247
6426,31.3848,10253.7,1.04366
6440,31.4531,10266.5,1.04579
6454,31.5215,10294,1.05024
6468,31.5898,10318.4,1.05044
6482,31.6582,10352.6,1.0532
6496,31.7266,10371.5,1.0584
6510,31.7949,10399.5,1.05961
6524,31.8633,10412.2,1.06138
6538,31.9316,10431.9,1.06155
6552,32.0,10459.3,1.064977
6566,32.0684,10492.4,1.0663
6580,32.1367,10507,1.07014
6594,32.2051,10528.3,1.07081
6608,32.2734,10551.1,1.07495
6622,32.3418,10581.2,1.07549
6636,32.4102,10596.7,1.08009
6650,32.4785,10612.7,1.08132
6664,32.5469,10632.7,1.082734
6678,32.6152,10671.9,1.08618
6692,32.6836,10675.4,1.08895
6706,32.752,10706.3,1.08806
6720,32.8203,10728.2,1.09369
6734,32.8887,10754.1,1.09586
6748,32.957,10766.9,1.09659
6762,33.0254,10796,1.09763
6776,33.09375,10825.7,1.10193
6790,33.1621,10849.1,1.10278
6804,33.2305,10858.2,1.10554
6818,33.2988,10889.2,1.10874
6832,33.3672,10916,1.110417
6846,33.4355,10925.2,1.11288
6860,33.5039,10950.6,1.11568
6874,33.5723,10976.6,1.11725
6888,33.6406,10992.7,1.1184
6902,33.709,11017.2,1.12163
6916,33.7773,11052.3,1.12534
6930,33.8457,11074.3,1.12741
6944,33.9141,11089.7,1.12929
6958,33.9824,11124.9,1.13098
6972,34.0508,11138.5,1.13422
6986,34.1191,11148.4,1.13672
7000,34.1875,11178.7,1.13809
7014,34.2559,11205.1,1.14014
7028,34.3242,11224.2,1.14399
7042,34.3926,11257.3,1.14533
7056,34.4609,11271.7,1.14836
7070,34.5293,11299.2,1.14832
7084,34.5977,11312.6,1.151957
7098,34.666,11337.8,1.152822
7112,34.7344,11364,1.15509
7126,34.8027,11386.8,1.15786
7140,34.8711,11419.3,1.16158
7154,34.9395,11423.7,1.16351
7168,35.0078,11452.1,1.16577
7182,35.0762,11479.5,1.16881
7196,35.1445,11470.7,1.1704
7210,35.2129,11516,1.17221
7224,35.28125,11543.5,1.17414
7238,35.3496,11569.7,1.177981
7252,35.418,11590,1.17982
7266,35.4863,11621.7,1.18262
7280,35.5547,11640.4,1.183964
7294,35.623,11651.5,1.18643
7308,35.6914,11670.6,1.18904
7322,35.7598,11703,1.19046
7336,35.8281,11715.8,1.193074
7350,35.8965,11755.7,1.19592
7364,35.9648,11764.3,1.19889
7378,36.0332,11797.8,1.19882
7392,36.1016,11802.9,1.20322
7406,36.1699,11847.5,1.20506
7420,36.2383,11854.2,1.20762
7434,36.3066,11877.1,1.20822
7448,36.375,11910.4,1.21049
7462,36.4434,11923,1.21138
7476,36.5117,11940,1.216579
7490,36.5801,11978.7,1.21832
7504,36.6484,11976.1,1.22001
7518,36.7168,12003.4,1.22295
7532,36.7852,12027,1.225325
7546,36.8535,12055.4,1.22657
7560,36.9219,12072.2,1.22968
7574,36.9902,12111.6,1.23167
7588,37.0586,12110.4,1.23404
7602,37.127,12157.3,1.23579
7616,37.1953,12165,1.23913
7630,37.2637,12200.7,1.24039
7644,37.332,12208.4,1.24419
7658,37.4004,12252.3,1.24607
7672,37.46875,12259.7,1.24915
7686,37.5371,12288.8,1.24943
7700,37.6055,12284.3,1.25201
7714,37.6738,12327,1.2532
7728,37.7422,12334.8,1.2565
7742,37.8105,12361.7,1.25919
7756,37.8789,12392.1,1.26114
7770,37.9473,12407.1,1.262404
7784,38.0156,12440.9,1.26562
7798,38.084,12459.9,1.26683
7812,38.1523,12468.9,1.26999
7826,38.2207,12496.7,1.27201
7840,38.2891,12531.9,1.27507
7854,38.3574,12537.8,1.27555
7868,38.4258,12557.5,1.27974
7882,38.4941,12610.1,1.28072
7896,38.5625,12596,1.28312
7910,38.6309,12627.8,1.28737
7924,38.6992,12662.4,1.28779
7938,38.7676,12690.3,1.29061
7952,38.8359,12699.9,1.2931
7966,38.9043,12728.5,1.29407
7980,38.9727,12747.2,1.2983
7994,39.041,12770.7,1.29876
8008,39.1094,12794.7,1.30191
8022,39.1777,12817.8,1.30419
8036,39.2461,12817.1,1.3066
8050,39.3145,12863.3,1.30916
8064,39.3828,12868,1.31136
8078,39.4512,12908.9,1.31266
8092,39.5195,12929.6,1.31649
8106,39.5879,12958.4,1.317099
8120,39.65625,12973.7,1.32088
8134,39.7246,12981,1.32211
8148,39.793,13018.9,1.325214
8162,39.8613,13041,1.3264
8176,39.9297,13053.2,1.32888
8190,39.998,13085.2,1.33176
8204,40.0664,13118.8,1.33294
8218,40.1348,13127.2,1.33539
8232,40.2031,13159.2,1.3386
8246,40.2715,13176,1.3393
8260,40.3398,13188.9,1.34355
8274,40.4082,13230.3,1.34758
8288,40.4766,13246.6,1.34716
8302,40.5449,13273.2,1.349879
8316,40.6133,13283.2,1.3533
8330,40.6816,13302.5,1.35376
8344,40.75,13316.8,1.35668
8358,40.8184,13358.4,1.35823
8372,40.8867,13377.3,1.362
8386,40.9551,13398.2,1.36274
8400,41.0234,13402.4,1.36515
8414,41.0918,13434.4,1.3687
8428,41.1602,13450.6,1.37071
8442,41.2285,13482.3,1.37254
8456,41.2969,13511.7,1.37539
8470,41.3652,13542.6,1.37747
8484,41.4336,13555,1.37905
8498,41.502,13582,1.38384
8512,41.5703,13607.9,1.38354
8526,41.6387,13629.2,1.38605
8540,41.707,13647.3,1.38991
8554,41.7754,13680.4,1.39036
8568,41.84375,13682.9,1.394412
8582,41.9121,13715.2,1.39649
8596,41.9805,13734.6,1.39783
8610,42.0488,13736,1.39985
8624,42.1172,13779,1.40207
8638,42.1855,13805,1.4058
8652,42.2539,13819.1,1.40618
8666,42.3223,13847.4,1.40817
8680,42.3906,13868.2,1.41109
8694,42.459,13895.8,1.41273
8708,42.5273,13896.9,1.41643
8722,42.5957,13926,1.41729
8736,42.6641,13955.3,1.42223
8750,42.7324,13975.6,1.422101
8764,42.8008,13996.1,1.42562
8778,42.8691,14029.2,1.42652
8792,42.9375,14033.7,1.42792
8806,43.0059,14066.9,1.431609
8820,43.0742,14091.8,1.43455
8834,43.1426,14107.7,1.43577
8848,43.2109,14133,1.43902
8862,43.2793,14160.2,1.44048
8876,43.3477,14161.1,1.44281
8890,43.416,14212.6,1.44602
8904,43.4844,14227.5,1.44851
8918,43.5527,14248.9,1.44966
8932,43.6211,14268.8,1.45315
8946,43.6895,14299.2,1.45396
8960,43.7578,14305.6,1.45844
8974,43.8262,14330.4,1.45875
8988,43.8945,14357.1,1.46262
9002,43.9629,14376.8,1.46404
9016,44.03125,14397.3,1.466328
9030,44.0996,14412,1.4679
9044,44.168,14447.1,1.47148
9058,44.2363,14470.9,1.47311
9072,44.3047,14479.7,1.47684
9086,44.373,14516.8,1.47735
9100,44.4414,14508.5,1.47982
9114,44.5098,14559.3,1.48083
9128,44.5781,14582.4,1.48427
9142,44.6465,14591.1,1.486111
9156,44.7148,14621.2,1.48927
9170,44.7832,14660.8,1.49051
9184,44.8516,14655.1,1.49208
9198,44.9199,14689.3,1.49636
9212,44.9883,14703.8,1.49783
9226,45.0566,14730,1.49924
9240,45.125,14753.7,1.50236
9254,45.1934,14783.1,1.50472
9268,45.2617,14801.8,1.5063
9282,45.3301,14825.8,1.50945
9296,45.3984,14845.9,1.51213
9310,45.4668,14876.1,1.51483
9324,45.5352,14885.5,1.51571
9338,45.6035,14925,1.51749
9352,45.6719,14941.1,1.52002
9366,45.7402,14953.4,1.52139
9380,45.8086,14985.8,1.52527
9394,45.877,15027.3,1.52862
9408,45.9453,15012.7,1.53011
9422,46.0137,15064.3,1.53129
9436,46.082,15076.4,1.53459
9450,46.1504,15100.8,1.53701
9464,46.21875,15122.4,1.53977
9478,46.2871,15138.5,1.54098
9492,46.3555,15161.9,1.54469
9506,46.4238,15175.9,1.54514
9520,46.4922,15209.3,1.54878
9534,46.5605,15235.9,1.54966
9548,46.6289,15243.1,1.55225
9562,46.6973,15269.9,1.55445
9576,46.7656,15292,1.556883
9590,46.834,15300.6,1.55745
9604,46.9023,15340.3,1.56168
9618,46.9707,15365.3,1.56403
9632,47.0391,15374.4,1.56608
9646,47.1074,15410.2,1.56818
9660,47.1758,15427.5,1.57185
9674,47.2441,15448.4,1.5723
9688,47.3125,15472.8,1.57514
9702,47.3809,15498.5,1.57681
9716,47.4492,15496.6,1.57918
9730,47.5176,15534.5,1.58236
9744,47.5859,15560.8,1.58359
9758,47.6543,15579.7,1.58478
9772,47.7227,15605.4,1.58896
9786,47.791,15630.5,1.59106
9800,47.8594,15643.7,1.594771
9814,47.9277,15676.3,1.59612
9828,47.9961,15696.6,1.59855
9842,48.0645,15716.4,1.59904
9856,48.1328,15727.4,1.60217
9870,48.2012,15761.7,1.605549
9884,48.2695,15786.8,1.60828
9898,48.3379,15801.3,1.60962
9912,48.40625,15823.6,1.61271
9926,48.4746,15847.6,1.61386
9940,48.543,15859,1.61749
9954,48.6113,15908.8,1.61846
9968,48.6797,15908.6,1.62162
9982,48.748,15944.4,1.62236
9996,48.8164,15948.6,1.6251
10010,48.8848,15985.9,1.62718
10024,48.9531,16005.2,1.63068
10038,49.0215,16034.2,1.63069
10052,49.0898,16052.7,1.6365
10066,49.1582,16055,1.63662
10080,49.2266,16085.5,1.63856
10094,49.2949,16119.8,1.64244
10108,49.3633,16135.9,1.6432
10122,49.4316,16161.5,1.64661
10136,49.5,16191.3,1.64908
10150,49.5684,16217.9,1.65041
10164,49.6367,16202.3,1.65322
10178,49.7051,16242.5,1.65537
10192,49.7734,16271,1.65792
10206,49.8418,16273.8,1.65824
10220,49.9102,16327.2,1.66412
10234,49.9785,16345,1.66357
10248,50.0469,16349.5,1.66662
10262,50.1152,16381.3,1.66735
10276,50.1836,16408.9,1.67208
10290,50.252,16411.6,1.67306
10304,50.3203,16441.7,1.6758
10318,50.3887,16475.7,1.67696
10332,50.457,16495.9,1.68004
10346,50.5254,16504.8,1.68145
10360,50.59375,16527.7,1.68551
10374,50.6621,16554.9,1.68769
10388,50.7305,16566.9,1.68949
10402,50.7988,16599.2,1.69049
10416,50.8672,16622.2,1.69259
10430,50.9355,16626.2,1.6957
10444,51.0039,16668.3,1.69898
10458,51.0723,16689.9,1.70089
10472,51.1406,16688,1.70275
10486,51.209,16728,1.70597
10500,51.2773,16764.7,1.70753
10514,51.3457,16767.1,1.70984
10528,51.4141,16787.2,1.71253
10542,51.4824,16833.5,1.714
10556,51.5508,16830.3,1.71634
10570,51.6191,16868.8,1.7196
10584,51.6875,16893.5,1.72183
10598,51.7559,16903.7,1.72195
10612,51.8242,16915.5,1.72724
10626,51.8926,16969,1.72774
10640,51.9609,16967.3,1.7296
10654,52.0293,16984.8,1.73368
10668,52.0977,17026.1,1.73577
10682,52.166,17046.4,1.73806
10696,52.2344,17053.6,1.73959
10710,52.3027,17099.5,1.742215
10724,52.3711,17118.9,1.74432
10738,52.4395,17123.7,1.74712
10752,52.5078,17157.3,1.75026
10766,52.5762,17180.1,1.75086
10780,52.6445,17189.6,1.75346
10794,52.7129,17214.3,1.75509
10808,52.78125,17237.5,1.75669
10822,52.8496,17256.9,1.757955
10836,52.918,17263.1,1.76207
10850,52.9863,17311.9,1.76383
10864,53.0547,17325.3,1.76614
10878,53.123,17358.2,1.77054
10892,53.1914,17373.5,1.77141
10906,53.2598,17392.3,1.77275
10920,53.3281,17415.8,1.77432
10934,53.3965,17447.2,1.77878
10948,53.4648,17460.7,1.78067
10962,53.5332,17479,1.78165
10976,53.6016,17514.2,1.78607
10990,53.6699,17531.3,1.78648
11004,53.7383,17544.4,1.78996
11018,53.8066,17580.5,1.79185
11032,53.875,17591,1.79399
11046,53.9434,17629.9,1.79635
11060,54.0117,17639.5,1.79849
11074,54.0801,17664.8,1.80093
11088,54.1484,17696.8,1.80327
11102,54.2168,17712.8,1.80411
11116,54.2852,17738.6,1.80995
11130,54.3535,17761,1.81073
11144,54.4219,17769.7,1.81187
11158,54.4902,17809,1.81484
11172,54.5586,17813.9,1.81636
11186,54.627,17848.3,1.81986
11200,54.6953,17863.6,1.82254
11214,54.7637,17881.8,1.82442
11228,54.832,17893.7,1.82559
11242,54.9004,17939.5,1.82837
11256,54.96875,17959.1,1.83157
11270,55.0371,17980.9,1.83252
11284,55.1055,17994.9,1.83532
11298,55.1738,18028.4,1.8375
11312,55.2422,18044.5,1.8405
11326,55.3105,18056.9,1.8418
11340,55.3789,18077.6,1.84503
11354,55.4473,18107.6,1.84526
11368,55.5156,18138.2,1.85108
11382,55.584,18159,1.84969
11396,55.6523,18175.2,1.85545
11410,55.7207,18199.2,1.85622
11424,55.7891,18217.9,1.85827
11438,55.8574,18244.2,1.85946
11452,55.9258,18265.4,1.86388
11466,55.9941,18298.8,1.86533
11480,56.0625,18308.7,1.86854
11494,56.1309,18341.2,1.87036
11508,56.1992,18349.1,1.872249
11522,56.2676,18371.7,1.87385
11536,56.3359,18386.6,1.87539
11550,56.4043,18412.3,1.87952
11564,56.4727,18446.4,1.88175
11578,56.541,18458.4,1.88305
11592,56.6094,18484.3,1.8871
11606,56.6777,18523.2,1.88817
11620,56.7461,18535,1.89034
11634,56.8145,18559,1.89176
11648,56.8828,18580.7,1.8958
11662,56.9512,18597.4,1.89727
11676,57.0195,18624.5,1.89986
11690,57.0879,18660.3,1.90154
11704,57.15625,18654.1,1.90281
11718,57.2246,18679.1,1.90601
11732,57.293,18700.3,1.90906
11746,57.3613,18724.2,1.91013
11760,57.4297,18744.4,1.913
11774,57.498,18788.8,1.91545
11788,57.5664,18790.2,1.91743
11802,57.6348,18822.9,1.91979
11816,57.7031,18839,1.92269
11830,57.7715,18866.2,1.92445
11844,57.8398,18878.4,1.92734
11858,57.9082,18914.7,1.9293
11872,57.9766,18931.5,1.93214
11886,58.0449,18944.8,1.93365
11900,58.1133,18973.8,1.93624
11914,58.1816,19008,1.93778
11928,58.25,19006.2,1.94094
11942,58.3184,19030.9,1.94172
11956,58.3867,19057.7,1.94409
11970,58.4551,19078.9,1.94783
11984,58.5234,19097.1,1.94863
11998,58.5918,19127.7,1.95215
12012,58.6602,19158.8,1.95341
12026,58.7285,19177.8,1.95612
12040,58.7969,19181.6,1.95866
12054,58.8652,19208.3,1.96069
12068,58.9336,19227.9,1.96432
12082,59.002,19266.1,1.96491
12096,59.0703,19286.7,1.96844
12110,59.1387,19302.3,1.96978
12124,59.207,19323.5,1.97176
12138,59.2754,19349,1.97496
12152,59.34375,19367.2,1.97674
12166,59.4121,19402.6,1.9799
12180,59.4805,19419.1,1.98127
12194,59.5488,19439.1,1.98256
12208,59.6172,19468.1,1.98693
12222,59.6855,19491.5,1.98765
12236,59.7539,19498.2,1.98995
12250,59.8223,19523.8,1.99291
12264,59.8906,19561.2,1.99631
12278,59.959,19572.5,1.99732
12292,60.0273,19589.1,1.99875
12306,60.0957,19625.1,2.00086
12320,60.1641,19632.6,2.00344
12334,60.2324,19649.6,2.00596
12348,60.3008,19685.2,2.00761
12362,60.3691,19704.4,2.0108
12376,60.4375,19710.7,2.01287
12390,60.5059,19762.8,2.01636
12404,60.5742,19768.8,2.01854
12418,60.6426,19790.7,2.02063
12432,60.7109,19801.8,2.02346
12446,60.7793,19835.4,2.023736
12460,60.8477,19845.3,2.02791
12474,60.916,19874.7,2.02835
12488,60.9844,19898.9,2.032428
12502,61.0527,19927.4,2.03314
12516,61.1211,19951.3,2.03537
12530,61.1895,19960.1,2.03815
12544,61.2578,19985.5,2.04131
12558,61.3262,20002.8,2.04188
12572,61.3945,20037,2.045
12586,61.4629,20052.5,2.04573
12600,61.53125,20078,2.05062
12614,61.5996,20099.4,2.05176
12628,61.668,20113.5,2.05248
12642,61.7363,20141.1,2.05699
12656,61.8047,20171.4,2.0599
12670,61.873,20189.7,2.06044
12684,61.9414,20198.9,2.06267
12698,62.0098,20219.2,2.0657
12712,62.0781,20255.2,2.06887
12726,62.1465,20265.2,2.069782
12740,62.2148,20281.5,2.072768
12754,62.2832,20304.3,2.07351
12768,62.3516,20330.3,2.07688
12782,62.4199,20367.7,2.07874
12796,62.4883,20381.2,2.08314
12810,62.5566,20394.7,2.08201
12824,62.625,20411.8,2.08497
12838,62.6934,20439.3,2.08798
12852,62.7617,20465.5,2.09155
12866,62.8301,20482.9,2.0917
12880,62.8984,20500.5,2.09527
12894,62.9668,20535.2,2.09585
12908,63.0352,20537.1,2.10044
12922,63.1035,20576.5,2.10093
12936,63.1719,20594.5,2.10479
12950,63.2402,20620.2,2.10569
12964,63.3086,20645.2,2.10886
12978,63.377,20663.1,2.1116
12992,63.4453,20668.2,2.11255
13006,63.5137,20701.9,2.11492
13020,63.582,20744.6,2.11793
13034,63.6504,20735.9,2.1182
13048,63.71875,20766.4,2.12302
13062,63.7871,20792.8,2.12395
13076,63.8555,20812.6,2.12616
13090,63.9238,20828.1,2.12748
13104,63.9922,20851.1,2.13004
13118,64.0605,20852.9,2.13428
13132,64.1289,20876,2.136761
13146,64.1973,20906.6,2.13796
13160,64.2656,20935.1,2.14018
13174,64.334,20957.5,2.14352
13188,64.4023,20972.6,2.14571
13202,64.4707,21001.6,2.14568
13216,64.5391,21019.2,2.15013
13230,64.6074,21057.1,2.15267
13244,64.6758,21073.8,2.15509
13258,64.7441,21073.3,2.15513
13272,64.8125,21104.5,2.15936
13286,64.8809,21132.4,2.16174
13300,64.9492,21155.3,2.16473
13314,65.0176,21176.9,2.165098
13328,65.0859,21197.6,2.16923
13342,65.1543,21211.9,2.16948
13356,65.2227,21228.8,2.17341
13370,65.291,21263.6,2.17451
13384,65.3594,21284.2,2.17699
13398,65.4277,21304.2,2.17924
13412,65.4961,21341.4,2.18266
13426,65.5645,21354.4,2.18373
13440,65.6328,21361.4,2.18637
13454,65.7012,21407.2,2.18919
13468,65.7695,21426.6,2.19114
13482,65.8379,21437.8,2.19415
13496,65.90625,21454.2,2.19464
13510,65.9746,21487.1,2.19805
13524,66.043,21497.1,2.19856
13538,66.1113,21523.4,2.20388
13552,66.1797,21550.2,2.205431
13566,66.248,21568,2.20627
13580,66.3164,21584.3,2.20699
13594,66.3848,21618.4,2.2107
13608,66.4531,21632.8,2.21424
13622,66.5215,21655.9,2.21475
13636,66.5898,21682.2,2.21771
13650,66.6582,21710,2.21925
13664,66.7266,21708.5,2.22229
13678,66.7949,21751.9,2.22498
13692,66.8633,21765.2,2.22818
13706,66.9316,21764.2,2.22952
13720,67.0,21817,2.23339
13734,67.0684,21825,2.234762
13748,67.1367,21845.8,2.23589
13762,67.2051,21882.6,2.23875
13776,67.2734,21897.2,2.240011
13790,67.3418,21908.8,2.24186
13804,67.4102,21931.9,2.24549
13818,67.4785,21964.5,2.24785
13832,67.5469,21977.2,2.24976
13846,67.6152,22018.1,2.25339
13860,67.6836,22026.7,2.25497
13874,67.752,22051.7,2.25719
13888,67.8203,22069.2,2.2589
13902,67.8887,22093.5,2.26048
13916,67.957,22124.4,2.26555
13930,68.0254,22143.5,2.26582
13944,68.09375,22158.2,2.26916
13958,68.1621,22184,2.27032
13972,68.2305,22192.4,2.272912
13986,68.2988,22234.3,2.27549
14000,68.3672,22227.8,2.2782
14014,68.4355,22258.7,2.27801
14028,68.5039,22269.6,2.280648
14042,68.5723,22303.4,2.28445
14056,68.6406,22317,2.28597
14070,68.709,22336.4,2.28754
14084,68.7773,22362.3,2.29132
14098,68.8457,22390,2.292275
14112,68.9141,22410,2.2967
14126,68.9824,22429.8,2.29734
14140,69.0508,22453.5,2.30056
14154,69.1191,22477.6,2.30162
14168,69.1875,22504.6,2.30675
14182,69.2559,22517.8,2.30753
14196,69.3242,22532.5,2.309088
14210,69.3926,22558.4,2.31174
14224,69.4609,22588,2.31491
14238,69.5293,22603.5,2.31608
14252,69.5977,22637.4,2.31948
14266,69.666,22664.4,2.31967
14280,69.7344,22656.4,2.322746
14294,69.8027,22697.1,2.32374
14308,69.8711,22713.8,2.32749
14322,69.9395,22733.6,2.3307
14336,70.0078,22757.6,2.33384
14350,70.0762,22789.4,2.33369
14364,70.1445,22793.3,2.33774
14378,70.2129,22817.5,2.33907
14392,70.28125,22845.6,2.34155
14406,70.3496,22865.3,2.34305
14420,70.418,22878.2,2.34622
14434,70.4863,22907.9,2.34709
14448,70.5547,22895.2,2.34846
14462,70.623,22949.6,2.35363
14476,70.6914,22964.1,2.35547
14490,70.7598,22993.8,2.35684
14504,70.8281,23007,2.35946
14518,70.8965,23040.2,2.36145
14532,70.9648,23049.1,2.36485
14546,71.0332,23051.1,2.36621
14560,71.1016,23089.1,2.36963
14574,71.1699,23127.2,2.37031
14588,71.2383,23125.3,2.373328
14602,71.3066,23155.6,2.375555
14616,71.375,23181.1,2.3779
14630,71.4434,23199.5,2.38008
14644,71.5117,23230.1,2.38249
14658,71.5801,23265.1,2.38474
14672,71.6484,23266.6,2.38628
14686,71.7168,23300.6,2.38945
14700,71.7852,23315.2,2.3913
14714,71.8535,23334.5,2.39355
14728,71.9219,23344,2.39647
14742,71.9902,23390.2,2.39793
14756,72.0586,23385.2,2.40008
14770,72.127,23424.6,2.40253
14784,72.1953,23445,2.40555
14798,72.2637,23475.4,2.40793
14812,72.332,23485.2,2.40807
14826,72.4004,23515.3,2.41122
14840,72.46875,23528.2,2.41461
14854,72.5371,23540.3,2.41528
14868,72.6055,23575,2.41892
14882,72.6738,23596.2,2.42125
14896,72.7422,23599.1,2.42195
14910,72.8105,23633.9,2.42547
14924,72.8789,23659.9,2.42816
14938,72.9473,23678.2,2.42863
14952,73.0156,23704.4,2.43276
14966,73.084,23722.5,2.43343
14980,73.1523,23728,2.43628
14994,73.2207,23763,2.43926
15008,73.2891,23793.2,2.44125
15022,73.3574,23813.5,2.44373
15036,73.4258,23835,2.44689
15050,73.4941,23858.6,2.44908
15064,73.5625,23869.7,2.45105
15078,73.6309,23889.7,2.4528
15092,73.6992,23913.3,2.45543
15106,73.7676,23935.6,2.45702
15120,73.8359,23953.9,2.45935
15134,73.9043,23982.7,2.46103
15148,73.9727,24005.8,2.46451
15162,74.041,24012.8,2.46637
15176,74.1094,24034.5,2.46956
15190,74.1777,24068.8,2.47087
15204,74.2461,24082.7,2.47347
15218,74.3145,24097.6,2.47449
15232,74.3828,24133.1,2.47709
15246,74.4512,24137.2,2.47892
15260,74.5195,24170.2,2.4816
15274,74.5879,24197.9,2.48419
15288,74.65625,24205.6,2.486392
15302,74.7246,24236.4,2.48794
15316,74.793,24244.4,2.49158
15330,74.8613,24295.4,2.49492
15344,74.9297,24299.4,2.4964
15358,74.998,24325.9,2.49752
15372,75.0664,24345,2.5005
15386,75.1348,24348.3,2.50311
15400,75.2031,24377.9,2.5061
15414,75.2715,24418.9,2.50716
15428,75.3398,24431,2.51081
15442,75.4082,24466,2.51252
15456,75.4766,24486.6,2.51358
15470,75.5449,24496.5,2.51634
15484,75.6133,24523.2,2.51934
15498,75.6816,24544.4,2.52035
15512,75.75,24560.2,2.5238
15526,75.8184,24583.1,2.52528
15540,75.8867,24597.7,2.5277
15554,75.9551,24623.7,2.52887
15568,76.0234,24639.9,2.531951
15582,76.0918,24666.9,2.53418
15596,76.1602,24686.6,2.53855
15610,76.2285,24718,2.53962
15624,76.2969,24729.1,2.54067
15638,76.3652,24754.7,2.542253
15652,76.4336,24768.8,2.54599
15666,76.502,24796.6,2.54783
15680,76.5703,24815.2,2.55056
15694,76.6387,24828.2,2.55223
15708,76.707,24849.4,2.55503
15722,76.7754,24883.5,2.55637
15736,76.84375,24891,2.55813
15750,76.9121,24928,2.561512
15764,76.9805,24947.7,2.56437
15778,77.0488,24957.1,2.56484
15792,77.1172,24991.7,2.56957
15806,77.1855,25018,2.57062
15820,77.2539,25040.2,2.57414
15834,77.3223,25068.3,2.5762
15848,77.3906,25092.1,2.57954
15862,77.459,25096,2.58116
15876,77.5273,25132.8,2.58414
15890,77.5957,25154,2.58591
15904,77.6641,25180.2,2.58874
15918,77.7324,25203.5,2.59058
15932,77.8008,25225,2.59455
15946,77.8691,25238,2.59402
15960,77.9375,25240.8,2.59737
15974,78.0059,25274.5,2.599185
15988,78.0742,25295.1,2.6018
16002,78.1426,25313.3,2.60278
16016,78.2109,25339.7,2.607152
16030,78.2793,25369.1,2.60808
16044,78.3477,25353.4,2.61054
16058,78.416,25404.6,2.61272
16072,78.4844,25421.3,2.61485
16086,78.5527,25436.5,2.61594
16100,78.6211,25462.3,2.61934
16114,78.6895,25484.4,2.6204
16128,78.7578,25502.5,2.62413
16142,78.8262,25529.3,2.62659
16156,78.8945,25547.1,2.62831
16170,78.9629,25560.6,2.63167
16184,79.03125,25594.8,2.63284
16198,79.0996,25609.2,2.63535
16212,79.168,25625.3,2.63804
16226,79.2363,25647.8,2.63912
16240,79.3047,25675.4,2.64356
16254,79.373,25698.9,2.64403
16268,79.4414,25691.3,2.64659
16282,79.5098,25734.2,2.64819
16296,79.5781,25763.6,2.64983
16310,79.6465,25771.7,2.65226
16324,79.7148,25798.1,2.65459
16338,79.7832,25820,2.65693
16352,79.8516,25814.3,2.65933
16366,79.9199,25869.2,2.66188
16380,79.9883,25875.1,2.66457
16394,80.0566,25895,2.6651
16408,80.125,25923.9,2.66925
16422,80.1934,25954.8,2.67067
16436,80.2617,25957.3,2.67309
16450,80.3301,25989.3,2.67633
16464,80.3984,26014.5,2.67803
16478,80.4668,26044.9,2.68098
16492,80.5352,26048.7,2.68359
16506,80.6035,26061,2.68339
16520,80.6719,26093.7,2.68756
16534,80.7402,26116.4,2.69092
16548,80.8086,26140.6,2.69318
16562,80.877,26140.3,2.69242
16576,80.9453,26179,2.69612
16590,81.0137,26207.9,2.69761
16604,81.082,26219.8,2.70238
16618,81.1504,26227.2,2.70332
16632,81.21875,26259.1,2.70557
16646,81.2871,26281.9,2.70792
16660,81.3555,26298.2,2.71018
16674,81.4238,26319.9,2.71097
16688,81.4922,26336.1,2.71563
16702,81.5605,26366.3,2.71659
16716,81.6289,26374,2.71963
16730,81.6973,26407.3,2.72056
16744,81.7656,26422,2.72403
16758,81.834,26441.5,2.72672
16772,81.9023,26473.8,2.72901
16786,81.9707,26496.2,2.72983
16800,82.0391,26502.5,2.73307
16814,82.1074,26538.9,2.73424
16828,82.1758,26545,2.73662
16842,82.2441,26561.5,2.73824
16856,82.3125,26594.8,2.74055
16870,82.3809,26616.1,2.74336
16884,82.4492,26631,2.7459
16898,82.5176,26663.4,2.74876
16912,82.5859,26677.9,2.7505
16926,82.6543,26708.9,2.7531
16940,82.7227,26712.4,2.75593
16954,82.791,26751.8,2.75697
16968,82.8594,26771.7,2.75982
16982,82.9277,26785.5,2.76104
16996,82.9961,26806.2,2.76445
17010,83.0645,26834.6,2.76663
17024,83.1328,26850.5,2.76812
17038,83.2012,26869.8,2.77114
17052,83.2695,26897.3,2.77315
17066,83.3379,26917.4,2.77505
17080,83.40625,26939.5,2.77749
17094,83.4746,26961,2.77974
17108,83.543,26968.3,2.78402
17122,83.6113,27000,2.78476
17136,83.6797,27018.6,2.78732
17150,83.748,27042.2,2.78946
17164,83.8164,27068.8,2.7906
17178,83.8848,27093.5,2.79369
17192,83.9531,27096.4,2.79561
17206,84.0215,27133.3,2.79776
17220,84.0898,27150.8,2.80071
17234,84.1582,27173.3,2.8015
17248,84.2266,27183.1,2.80386
17262,84.2949,27228.6,2.80711
17276,84.3633,27238.2,2.81009
17290,84.4316,27253.2,2.81064
17304,84.5,27277.4,2.81438
17318,84.5684,27306.5,2.81591
17332,84.6367,27312.2,2.8197
17346,84.7051,27341.9,2.82047
17360,84.7734,27368.5,2.8231
17374,84.8418,27379.7,2.82532
17388,84.9102,27410.7,2.82832
17402,84.9785,27424.7,2.829139
17416,85.0469,27437.5,2.83102
17430,85.1152,27482.2,2.83643
17444,85.1836,27490.8,2.83866
17458,85.252,27511.9,2.83886
17472,85.3203,27544.9,2.8433
17486,85.3887,27568.8,2.84546
17500,85.457,27582.8,2.84826
17514,85.5254,27599.8,2.84915
17528,85.59375,27631.4,2.85137
17542,85.6621,27653.6,2.8542
17556,85.7305,27659.7,2.85546
17570,85.7988,27684.5,2.8572
17584,85.8672,27710.8,2.86149
17598,85.9355,27727.1,2.86263
17612,86.0039,27759,2.86457
17626,86.0723,27769.5,2.86801
17640,86.1406,27792.9,2.86976
17654,86.209,27823.2,2.87166
17668,86.2773,27846.8,2.87469
17682,86.3457,27856.5,2.87539
17696,86.4141,27885.8,2.87985
17710,86.4824,27908.4,2.88054
17724,86.5508,27898.6,2.88273
17738,86.6191,27942,2.88446
17752,86.6875,27968.3,2.88948
17766,86.7559,27987.7,2.889605
17780,86.8242,27994.9,2.89131
17794,86.8926,28031.1,2.89409
17808,86.9609,28040.5,2.89693
17822,87.0293,28071,2.89848
17836,87.0977,28095.4,2.90151
17850,87.166,28105.9,2.90348
17864,87.2344,28125.7,2.906955
17878,87.3027,28148.3,2.90976
17892,87.3711,28171.1,2.91038
17906,87.4395,28191.8,2.91222
17920,87.5078,28214.8,2.91601
17934,87.5762,28237.8,2.918565
17948,87.6445,28250,2.92003
17962,87.7129,28281.1,2.92317
17976,87.78125,28302.6,2.92492
17990,87.8496,28315.1,2.9263
18004,87.918,28327.8,2.92824
18018,87.9863,28362.7,2.93072
18032,88.0547,28375.4,2.933
18046,88.123,28407.3,2.93619
18060,88.1914,28423.2,2.93819
18074,88.2598,28437.3,2.93927
18088,88.3281,28461.1,2.94274
18102,88.3965,28485.7,2.94547
18116,88.4648,28500.6,2.9461
18130,88.5332,28527.3,2.9492
18144,88.6016,28553.8,2.95181
18158,88.6699,28557.6,2.95343
18172,88.7383,28589.8,2.956095
18186,88.8066,28608.6,2.95841
18200,88.875,28632,2.96102
18214,88.9434,28650,2.96313
18228,89.0117,28676.9,2.96512
18242,89.0801,28710.7,2.96752
18256,89.1484,28715.2,2.96861
18270,89.2168,28745,2.97226
18284,89.2852,28755.9,2.97576
18298,89.3535,28788.3,2.97684
18312,89.4219,28796.8,2.97915
18326,89.4902,28838.3,2.98084
18340,89.5586,28850.9,2.98428
18354,89.627,28861.8,2.98406
18368,89.6953,28889.7,2.98857
18382,89.7637,28910.4,2.99119
18396,89.832,28921,2.99328
18410,89.9004,28965.1,2.99581
18424,89.96875,28973.1,2.99774
18438,90.0371,28990.9,2.9996
18452,90.1055,29010.4,3.00209
18466,90.1738,29044.1,3.00347
18480,90.2422,29048.8,3.00739
18494,90.3105,29081.1,3.00934
18508,90.3789,29110.5,3.01116
18522,90.4473,29121.6,3.01312
18536,90.5156,29144.2,3.01566
18550,90.584,29172.9,3.01685
18564,90.6523,29176.3,3.01873
18578,90.7207,29209.1,3.02253
18592,90.7891,29220.5,3.02602
18606,90.8574,29236,3.02697
18620,90.9258,29254.7,3.02994
18634,90.9941,29289.1,3.03112
18648,91.0625,29290.6,3.034
18662,91.1309,29334,3.03464
18676,91.1992,29353.3,3.03853
18690,91.2676,29376.5,3.040638
18704,91.3359,29397.9,3.04274
18718,91.4043,29410,3.04677
18732,91.4727,29437.9,3.04756
18746,91.541,29450.2,3.04927
18760,91.6094,29464.3,3.05272
18774,91.6777,29503.2,3.05445
18788,91.7461,29508.1,3.056479
18802,91.8145,29542.9,3.06014
18816,91.8828,29562.9,3.06149
18830,91.9512,29578.2,3.06273
18844,92.0195,29611.7,3.06665
18858,92.0879,29628,3.06769
18872,92.15625,29635.4,3.06976
18886,92.2246,29661.3,3.07245
18900,92.293,29689.2,3.07604
18914,92.3613,29706.7,3.07649
18928,92.4297,29738.2,3.08054
18942,92.498,29751.9,3.081224
18956,92.5664,29763.6,3.08362
18970,92.6348,29797.6,3.08573
18984,92.7031,29815.5,3.08805
18998,92.7715,29842.7,3.09066
19012,92.8398,29846.2,3.09323
19026,92.9082,29876.2,3.0944
19040,92.9766,29904.3,3.09705
19054,93.0449,29914.3,3.09911
19068,93.1133,29926.6,3.10194
19082,93.1816,29969.5,3.10405
19096,93.25,29977,3.1072
19110,93.3184,30006.1,3.10903
19124,93.3867,30018.9,3.11117
19138,93.4551,30042.3,3.11387
19152,93.5234,30053.6,3.117033
19166,93.5918,30080.7,3.118093
19180,93.6602,30091,3.12042
19194,93.7285,30116.8,3.12202
19208,93.7969,30143.5,3.12681
19222,93.8652,30150.4,3.12572
19236,93.9336,30185.6,3.1299
19250,94.002,30206.8,3.13146
19264,94.0703,30213.4,3.13377
19278,94.1387,30249.4,3.13664
19292,94.207,30260,3.1383
19306,94.2754,30283.1,3.1408
19320,94.34375,30288,3.14235
19334,94.4121,30331.6,3.14525
19348,94.4805,30343.1,3.1472
19362,94.5488,30367.6,3.14933
19376,94.6172,30390.2,3.15269
19390,94.6855,30417.5,3.154783
19404,94.7539,30426.4,3.15591
19418,94.8223,30447.6,3.15848
19432,94.8906,30469.5,3.16078
19446,94.959,30492.5,3.1633
19460,95.0273,30497.7,3.16579
19474,95.0957,30528.6,3.168232
19488,95.1641,30553.4,3.17186
19502,95.2324,30566.5,3.17296
19516,95.3008,30586.2,3.174891
19530,95.3691,30616,3.17681
19544,95.4375,30632.5,3.18113
19558,95.5059,30655.4,3.18047
19572,95.5742,30682.9,3.18484
19586,95.6426,30693.2,3.18636
19600,95.7109,30720.9,3.189187
19614,95.7793,30740.9,3.19065
19628,95.8477,30752.6,3.19361
19642,95.916,30774.4,3.19567
19656,95.9844,30796.1,3.19643
19670,96.0527,30815.7,3.20041
19684,96.1211,30824.6,3.20335
19698,96.1895,30854.4,3.20436
19712,96.2578,30880.3,3.20769
19726,96.3262,30900.1,3.20879
19740,96.3945,30925.1,3.2125
19754,96.4629,30951.2,3.21522
19768,96.53125,30970.4,3.21695
19782,96.5996,30993.7,3.21846
19796,96.668,30999.8,3.220191
19810,96.7363,31031.4,3.22266
19824,96.8047,31046.3,3.22638
19838,96.873,31075.9,3.22729
19852,96.9414,31082.9,3.22923
19866,97.0098,31107.8,3.23092
19880,97.0781,31126.8,3.23453
19894,97.1465,31158.1,3.236481
19908,97.2148,31174.8,3.23879
19922,97.2832,31193.5,3.23977
19936,97.3516,31204.6,3.24364
19950,97.4199,31234.1,3.24567
19964,97.4883,31262.9,3.24905
19978,97.5566,31282.8,3.2505
19992,97.625,31299,3.25473
20006,97.6934,31321.9,3.25506
20020,97.7617,31342,3.25603
20034,97.8301,31361.6,3.25986
20048,97.8984,31381.5,3.26199
20062,97.9668,31400.5,3.26301
20076,98.0352,31423.7,3.26677
20090,98.1035,31444.4,3.268682
20104,98.1719,31469.6,3.27149
20118,98.2402,31479.1,3.27229
20132,98.3086,31494.3,3.27535
20146,98.377,31533.6,3.27776
20160,98.4453,31540.4,3.2801
20174,98.5137,31572.3,3.28245
20188,98.582,31598.1,3.28414
20202,98.6504,31611.7,3.28504
20216,98.71875,31621.2,3.28991
20229,98.7822,-940.15,3.44533