File: ASM109_2021_data/MTS/UD/MTS_UD_9.csv
,Time [s],Load [N],Displacement [mm]
0,0.0078125,823.605,0.000737211
13,0.0712891,886.534,0.000978038
26,0.134766,910.397,0.002508329
39,0.198242,929.241,0.0067813
52,0.261719,941.887,0.00683519
65,0.325195,978.11,0.00933339
78,0.388672,999.118,0.0124735
91,0.452148,1015.57,0.014177
104,0.515625,1031.35,0.0166527
117,0.579102,1076.05,0.01835767
130,0.642578,1080.39,0.0193616
143,0.706055,1099.99,0.021986
156,0.769531,1128.93,0.0248602
169,0.833008,1144,0.0249623
182,0.896484,1190.52,0.0305406
195,0.959961,1157,0.0316117
208,1.02344,1213.82,0.0337411
221,1.08691,1237.34,0.0347789
234,1.15039,1263.28,0.036384
247,1.21387,1269.06,0.0394542
260,1.27734,1318.41,0.0426064
273,1.34082,1322.93,0.0432184
286,1.4043,1345.93,0.044865
299,1.46777,1379.71,0.0476662
312,1.53125,1363.99,0.0483965
325,1.59473,1427.5,0.0521602
338,1.6582,1431.12,0.0532981
351,1.72168,1460.86,0.0564203
364,1.78516,1493.74,0.0590309
377,1.84863,1491.41,0.0597338
390,1.91211,1545.57,0.0622057
403,1.97559,1548.7,0.0632459
416,2.03906,1578.16,0.0659436
429,2.10254,1581.54,0.0671968
442,2.16602,1630.94,0.0708962
455,2.22949,1625.06,0.0719416
468,2.29297,1669.73,0.0748319
481,2.35645,1691.78,0.0755562
494,2.41992,1712.91,0.0768441
507,2.4834,1732.53,0.080949
520,2.546875,1756.74,0.0822405
533,2.61035,1800.77,0.085847
546,2.67383,1788.46,0.086048
559,2.7373,1824.01,0.0898251
572,2.80078,1849.31,0.0925135
585,2.86426,1874.93,0.0927457
598,2.92773,1868.34,0.0951678
611,2.99121,1918.7,0.0968743
624,3.05469,1939.74,0.0994665
637,3.11816,1967.95,0.100973
650,3.18164,1990.25,0.1032
663,3.24512,1982.62,0.104601
676,3.30859,2031.75,0.108519
689,3.37207,2045.56,0.109269
702,3.43555,2070.64,0.112443
715,3.49902,2076.25,0.114594
728,3.5625,2116.08,0.116252
741,3.62598,2136.43,0.1173986
754,3.68945,2167.12,0.120729
767,3.75293,2188.72,0.124048
780,3.81641,2194.4,0.123315
793,3.87988,2239.52,0.128046
806,3.94336,2241.67,0.128559
819,4.00684,2282.02,0.132975
832,4.07031,2260.35,0.1328342
845,4.13379,2318.93,0.134653
858,4.19727,2351.83,0.138855
871,4.26074,2347.91,0.139081
884,4.32422,2376.82,0.141797
897,4.3877,2401.42,0.142359
910,4.45117,2436.64,0.147245
923,4.51465,2447.07,0.148641
936,4.578125,2479.28,0.151452
949,4.6416,2496.12,0.151533
962,4.70508,2527.83,0.154366
975,4.76855,2541.68,0.157118
988,4.83203,2565.56,0.1583996
1001,4.89551,2582.01,0.161036
1014,4.95898,2602.36,0.1619
1027,5.02246,2643.28,0.166518
1040,5.08594,2644.51,0.167006
1053,5.14941,2686.71,0.169146
1066,5.21289,2685.49,0.17124
1079,5.27637,2727.37,0.173404
1092,5.33984,2722.36,0.175263
1105,5.40332,2773.44,0.178578
1118,5.4668,2799.05,0.179146
1131,5.53027,2805.73,0.181433
1144,5.59375,2824.26,0.186286
1157,5.65723,2863.79,0.186369
1170,5.7207,2882.79,0.187717
1183,5.78418,2898.53,0.190728
1196,5.84766,2925.42,0.192813
1209,5.91113,2940.09,0.193677
1222,5.97461,2980.02,0.197193
1235,6.03809,2973.52,0.199329
1248,6.10156,3018.01,0.200849
1261,6.16504,3043.1,0.203629
1274,6.22852,3061.17,0.202783
1287,6.29199,3095.69,0.207767
1300,6.35547,3078.82,0.20673
1313,6.41895,3128.72,0.211763
1326,6.48242,3151,0.212425
1339,6.5459,3163.27,0.215679
1352,6.609375,3182.76,0.218458
1365,6.67285,3230.97,0.219907
1378,6.73633,3232.68,0.220689
1391,6.7998,3263.96,0.224762
1404,6.86328,3284.56,0.225228
1417,6.92676,3300.51,0.227114
1430,6.99023,3339.64,0.231239
1443,7.05371,3324.54,0.231881
1456,7.11719,3372.05,0.235348
1469,7.18066,3404.83,0.237592
1482,7.24414,3402.26,0.237437
1495,7.30762,3433.96,0.24125
1508,7.37109,3466.61,0.24165
1521,7.43457,3482.13,0.244474
1534,7.49805,3503.6,0.246014
1547,7.56152,3522.16,0.24924
1560,7.625,3528.77,0.250908
1573,7.68848,3590.68,0.25531
1586,7.75195,3595.55,0.255012
1599,7.81543,3619.59,0.257906
1612,7.87891,3634.75,0.260628
1625,7.94238,3657.66,0.262127
1638,8.00586,3683.78,0.264312
1651,8.06934,3704.22,0.266826
1664,8.13281,3728.64,0.268637
1677,8.19629,3747.93,0.269751
1690,8.25977,3782.47,0.273351
1703,8.32324,3779.29,0.274467
1716,8.38672,3828.57,0.278423
1729,8.4502,3819.52,0.278067
1742,8.51367,3860.57,0.281125
1755,8.57715,3883.28,0.283915
1768,8.640625,3897.34,0.284942
1781,8.7041,3927.54,0.286619
1794,8.76758,3940.68,0.289002
1807,8.83105,3970.03,0.291929
1820,8.89453,3979.2,0.293722
1833,8.95801,4016.86,0.295426
1846,9.02148,4030.79,0.297367
1859,9.08496,4053.73,0.301154
1872,9.14844,4058.54,0.302278
1885,9.21191,4098.54,0.304199
1898,9.27539,4126.67,0.306614
1911,9.33887,4125.49,0.30753
1924,9.40234,4162.69,0.31161
1937,9.46582,4173.72,0.3111946
1950,9.5293,4207.4,0.313513
1963,9.59277,4214.23,0.316768
1976,9.65625,4256.38,0.319864
1989,9.71973,4274.17,0.320795
2002,9.7832,4297.74,0.322336
2015,9.84668,4312.93,0.326411
2028,9.91016,4323.23,0.326196
2041,9.97363,4366.02,0.329761
2054,10.0371,4348.2,0.331103
2067,10.1006,4411.54,0.3358824
2080,10.1641,4419.55,0.337164
2093,10.2275,4449.86,0.3375
2106,10.291,4481.85,0.339156
2119,10.3545,4493.58,0.342078
2132,10.418,4507.58,0.345373
2145,10.4814,4548.45,0.346564
2158,10.5449,4553.34,0.348289
2171,10.6084,4573.18,0.350713
2184,10.6719,4615.56,0.35442
2197,10.7354,4619.01,0.353889
2210,10.7988,4664.37,0.357345
2223,10.8623,4665.66,0.360111
2236,10.9258,4684.86,0.361844
2249,10.9893,4719.94,0.362632
2262,11.0527,4738.54,0.364585
2275,11.1162,4750.24,0.369215
2288,11.1797,4782.67,0.368976
2301,11.2432,4809.64,0.373278
2314,11.3066,4823.46,0.372815
2327,11.3701,4857.58,0.377148
2340,11.4336,4848.38,0.378608
2353,11.4971,4905.29,0.381199
2366,11.5605,4924.61,0.382397
2379,11.624,4928.65,0.38598
2392,11.6875,4956.85,0.387035
2405,11.751,4968.85,0.387454
2418,11.8145,5016.09,0.391127
2431,11.8779,5011.26,0.39418
2444,11.9414,5056.76,0.394868
2457,12.0049,5070.6,0.39782
2470,12.0684,5098.66,0.398947
2483,12.1318,5102.94,0.400846
2496,12.1953,5149,0.405444
2509,12.2588,5156.69,0.405193
2522,12.3223,5178.99,0.407121
2535,12.3857,5199.42,0.411346
2548,12.4492,5211.93,0.411756
2561,12.5127,5257.15,0.414899
2574,12.5762,5266.42,0.4167605
2587,12.6396,5278.19,0.419424
2600,12.7031,5303.67,0.420446
2613,12.7666,5338.94,0.422639
2626,12.8301,5349.79,0.423837
2639,12.8936,5382.63,0.428751
2652,12.957,5400.25,0.4316099
2665,13.0205,5414.67,0.430314
2678,13.084,5450.98,0.434058
2691,13.1475,5451.15,0.434592
2704,13.2109,5484.35,0.438383
2717,13.2744,5507.9,0.438888
2730,13.3379,5523.06,0.441643
2743,13.4014,5549.34,0.44488
2756,13.4648,5572.98,0.4458527
2769,13.52832,5596.74,0.448849
2782,13.5918,5627.4,0.450471
2795,13.6553,5646.37,0.453124
2808,13.71875,5660.36,0.454634
2821,13.7822,5695.88,0.457564
2834,13.8457,5695.1,0.456895
2847,13.90918,5732.64,0.462646
2860,13.9727,5755.63,0.462837
2873,14.0361,5782.93,0.465337
2886,14.0996,5798.68,0.4678317
2899,14.1631,5786.91,0.468823
2912,14.2266,5836.8,0.471843
2925,14.29,5849.44,0.471434
2938,14.3535,5901.57,0.47641
2951,14.417,5897.71,0.477616
2964,14.4805,5929.96,0.478177
2977,14.5439,5934.78,0.481899
2990,14.6074,5972.88,0.483907
3003,14.6709,5991.69,0.4869715
3016,14.7344,6009.82,0.488312
3029,14.7979,6038.8,0.49166
3042,14.8613,6052.33,0.490947
3055,14.9248,6074.8,0.496151
3068,14.9883,6102.48,0.495795
3081,15.0518,6132.4,0.498969
3094,15.1152,6155.44,0.500173
3107,15.1787,6178.55,0.503834
3120,15.2422,6182.61,0.505495
3133,15.3057,6215.52,0.506653
3146,15.3691,6238.96,0.509461
3159,15.4326,6229.24,0.510421
3172,15.4961,6291.73,0.514503
3185,15.55957,6304.73,0.5155915
3198,15.623,6338.79,0.519536
3211,15.6865,6340.35,0.521643
3224,15.75,6364.43,0.522256
3237,15.8135,6389.49,0.526334
3250,15.877,6431.27,0.5277254
3263,15.94043,6437.93,0.529026
3276,16.0039,6442.18,0.530196
3289,16.0674,6475.65,0.533723
3302,16.1309,6487.84,0.534626
3315,16.1943,6528.44,0.5386982
3328,16.2578,6511.1,0.538515
3341,16.3213,6565.97,0.5400449
3354,16.3848,6588.98,0.542844
3367,16.4482,6605.79,0.546247
3380,16.5117,6629.07,0.548036
3393,16.5752,6658.18,0.549553
3406,16.6387,6667.71,0.55323
3419,16.7021,6687.87,0.554347
3432,16.7656,6728.49,0.5587669
3445,16.8291,6737.49,0.556594
3458,16.8926,6776.81,0.558439
3471,16.9561,6753.09,0.562795
3484,17.0195,6798.88,0.566802
3497,17.083,6833.48,0.567732
3510,17.1465,6842.92,0.568759
3523,17.21,6865.49,0.57249
3536,17.2734,6893.79,0.573274
3549,17.3369,6911.95,0.574328
3562,17.4004,6933.42,0.578218
3575,17.4639,6953.38,0.580833
3588,17.5273,6956.01,0.581395
3601,17.59082,7013.91,0.586415
3614,17.6543,7025.9,0.586654
3627,17.7178,7024.06,0.588827
3640,17.78125,7074.96,0.591371
3653,17.8447,7071.12,0.5906384
3666,17.9082,7122.22,0.59642
3679,17.97168,7116.67,0.596972
3692,18.0352,7146.87,0.597247
3705,18.0986,7170.42,0.600222
3718,18.1621,7202.48,0.603719
3731,18.2256,7190.64,0.606034
3744,18.2891,7243.92,0.607869
3757,18.3525,7277.65,0.608178
3770,18.416,7266.06,0.610845
3783,18.4795,7301.67,0.613959
3796,18.543,7310.49,0.614155
3809,18.6064,7362.71,0.61823
3822,18.6699,7360.84,0.61801
3835,18.7334,7393.04,0.621951
3848,18.7969,7409.68,0.623457
3861,18.8604,7439.73,0.625206
3874,18.9238,7436.8,0.627225
3887,18.9873,7476.85,0.629855
3900,19.0508,7497.31,0.632762
3913,19.1143,7509.34,0.633336
3926,19.1777,7548.16,0.637072
3939,19.2412,7539.46,0.637672
3952,19.3047,7587.54,0.6415813
3965,19.3682,7618.79,0.643664
3978,19.4316,7628.12,0.644835
3991,19.4951,7645.87,0.647843
4004,19.5586,7672.14,0.649426
4017,19.62207,7689.36,0.651085
4030,19.6855,7714.3,0.652625
4043,19.749,7734.36,0.656326
4056,19.8125,7754.41,0.657892
4069,19.876,7798.77,0.65993
4082,19.9395,7770.88,0.661763
4095,20.00293,7825,0.663843
4108,20.0664,7844.53,0.665682
4121,20.1299,7869.3,0.669255
4134,20.1934,7894.73,0.6716
4147,20.2568,7906.03,0.671987
4160,20.3203,7943.67,0.675844
4173,20.3838,7958.96,0.675116
4186,20.4473,7989.41,0.679729
4199,20.5107,7996.13,0.67987
4212,20.5742,8018.66,0.681847
4225,20.6377,8013.05,0.684185
4238,20.7012,8061.16,0.687024
4251,20.7646,8078.83,0.690939
4264,20.8281,8105.01,0.691897
4277,20.8916,8133.14,0.693462
4290,20.9551,8131.31,0.695038
4303,21.0186,8175.87,0.698777
4316,21.082,8173.88,0.698771
4329,21.1455,8214.02,0.70203
4342,21.209,8214.38,0.703795
4355,21.2725,8250.75,0.706134
4368,21.3359,8259.47,0.707451
4381,21.3994,8306.96,0.711094
4394,21.4629,8327.69,0.713279
4407,21.5264,8326.62,0.712942
4420,21.5898,8367.41,0.717243
4433,21.65332,8373.69,0.718726
4446,21.7168,8409.29,0.721211
4459,21.7803,8412.32,0.721544
4472,21.84375,8449.61,0.725231
4485,21.9072,8468.94,0.727399
4498,21.9707,8489.65,0.729842
4511,22.03418,8500.33,0.733001
4524,22.0977,8541.04,0.733473
4537,22.1611,8563.77,0.736414
4550,22.2246,8567.25,0.736471
4563,22.2881,8607.29,0.74239
4576,22.3516,8621.63,0.740928
4589,22.415,8652.1,0.745044
4602,22.4785,8647.14,0.746006
4615,22.542,8676.66,0.749045
4628,22.6055,8707.92,0.751497
4641,22.6689,8744.94,0.753748
4654,22.7324,8750.67,0.756218
4667,22.7959,8776.87,0.756571
4680,22.8594,8806.13,0.758847
4693,22.9229,8790.46,0.759491
4706,22.9863,8846.46,0.76343
4719,23.0498,8843.79,0.76537
4732,23.1133,8885.78,0.767748
4745,23.1768,8914.45,0.770509
4758,23.2402,8924.12,0.770743
4771,23.3037,8952.48,0.774825
4784,23.3672,8974.09,0.774979
4797,23.4307,8997.66,0.777447
4810,23.4941,9019.58,0.781496
4823,23.5576,9041.82,0.782955
4836,23.6211,9040.63,0.784292
4849,23.68457,9088.05,0.786331
4862,23.748,9071.74,0.789107
4875,23.8115,9124.47,0.790887
4888,23.875,9144.66,0.792802
4901,23.9385,9168.38,0.794749
4914,24.002,9202.28,0.799317
4927,24.06543,9190.7,0.798839
4940,24.1289,9233.98,0.801398
4953,24.1924,9262.39,0.803868
4966,24.2559,9280.01,0.80714
4979,24.3193,9277.96,0.808587
4992,24.3828,9317.53,0.809408
5005,24.4463,9329.82,0.812335
5018,24.5098,9367.93,0.814597
5031,24.5732,9387.97,0.816277
5044,24.6367,9370.21,0.817305
5057,24.7002,9439.66,0.821928
5070,24.7637,9434.1,0.822819
5083,24.8271,9468.42,0.824637
5096,24.8906,9485.81,0.826112
5109,24.9541,9519.38,0.829946
5122,25.0176,9526.21,0.830248
5135,25.0811,9555.16,0.833707
5148,25.1445,9583.32,0.8348732
5161,25.208,9601.26,0.838475
5174,25.2715,9619.44,0.839486
5187,25.335,9615.03,0.841143
5200,25.3984,9681.69,0.843615
5213,25.4619,9667.29,0.846097
5226,25.5254,9707.72,0.848918
5239,25.5889,9727.4,0.851022
5252,25.6523,9751.01,0.8527
5265,25.71582,9784.8,0.853887
5278,25.7793,9803.31,0.8562119
5291,25.8428,9809.81,0.859016
5304,25.90625,9813.24,0.859264
5317,25.9697,9862.5,0.86346
5330,26.0332,9856.27,0.864476
5343,26.09668,9902.03,0.867563
5356,26.1602,9900.12,0.870123
5369,26.2236,9945.37,0.872323
5382,26.2871,9966.58,0.874544
5395,26.3506,9973.58,0.875966
5408,26.4141,10013.4,0.877864
5421,26.4775,10021.7,0.8791821
5434,26.541,10051.2,0.88142
5447,26.6045,10054.7,0.883311
5460,26.668,10092.3,0.886141
5473,26.7314,10106.4,0.887662
5486,26.7949,10131,0.890301
5499,26.8584,10143.2,0.893401
5512,26.9219,10161.8,0.894295
5525,26.9854,10199.5,0.897024
5538,27.0488,10219.2,0.8977685
5551,27.1123,10238,0.902164
5564,27.1758,10253.6,0.90306
5577,27.2393,10285.1,0.905141
5590,27.3027,10295.1,0.907366
5603,27.3662,10310.9,0.911339
5616,27.4297,10326.2,0.911761
5629,27.4932,10372.7,0.914661
5642,27.5566,10388,0.917007
5655,27.6201,10407.1,0.916963
5668,27.6836,10441,0.919658
5681,27.74707,10437.5,0.921458
5694,27.8105,10479.1,0.924416
5707,27.874,10487.2,0.926931
5720,27.9375,10522.4,0.927744
5733,28.001,10537.2,0.930404
5746,28.0645,10559.7,0.933124
5759,28.12793,10564.8,0.93554
5772,28.1914,10606.9,0.9375447
5785,28.2549,10631.6,0.940827
5798,28.3184,10640.3,0.94093
5811,28.3818,10669.5,0.944816
5824,28.4453,10679.6,0.944964
5837,28.5088,10717.9,0.947699
5850,28.5723,10723.4,0.949943
5863,28.6357,10750.5,0.951369
5876,28.6992,10784.4,0.953533
5889,28.7627,10802.1,0.955037
5902,28.8262,10817.9,0.958119
5915,28.8896,10838.7,0.960885
5928,28.9531,10857.8,0.962711
5941,29.0166,10883.6,0.963324
5954,29.0801,10895.9,0.9665224
5967,29.1436,10911.9,0.968711
5980,29.207,10942,0.970057
5993,29.2705,10969.9,0.972573
6006,29.334,10989.7,0.974404
6019,29.3975,11009.7,0.978535
6032,29.4609,11014.4,0.977714
6045,29.5244,11061.4,0.981044
6058,29.5879,11068.7,0.981939
6071,29.6514,11104.1,0.984598
6084,29.7148,11106.4,0.987287
6097,29.77832,11152.4,0.991533
6110,29.8418,11144.7,0.991048
6123,29.9053,11181.4,0.993503
6136,29.96875,11218,0.996578
6149,30.0322,11220.8,0.99845
6162,30.0957,11254.3,1.00113
6175,30.15918,11267.4,1.00127
6188,30.2227,11297.2,1.0049
6201,30.2861,11298.3,1.00729
6214,30.3496,11330.4,1.01007
6227,30.4131,11343.4,1.01094
6240,30.4766,11382.8,1.0123
6253,30.54,11388.1,1.01473
6266,30.6035,11428.3,1.01782
6279,30.667,11449.6,1.01918
6292,30.7305,11461.9,1.02149
6305,30.7939,11495.4,1.02419
6318,30.8574,11485,1.02514
6331,30.9209,11532.2,1.02885
6344,30.9844,11552.8,1.03002
6357,31.0479,11572.2,1.03277
6370,31.1113,11590.5,1.03333
6383,31.1748,11613.4,1.03626
6396,31.2383,11631.4,1.04004
6409,31.3018,11663.2,1.03947
6422,31.3652,11688.2,1.04468
6435,31.4287,11675.3,1.04397
6448,31.4922,11723.9,1.04768
6461,31.5557,11732.6,1.04889
6474,31.6191,11768.7,1.05155
6487,31.6826,11785,1.05393
6500,31.7461,11802.3,1.05471
6513,31.80957,11835.8,1.05743
6526,31.873,11859.5,1.06021
6539,31.9365,11871.2,1.062276
6552,32.0,11886.7,1.06294
6565,32.0635,11926.1,1.0665
6578,32.127,11911,1.06765
6591,32.19043,11969.3,1.07
6604,32.2539,11979,1.07153
6617,32.3174,12012.5,1.07362
6630,32.3809,12027.5,1.07605
6643,32.4443,12022.6,1.07827
6656,32.5078,12068.6,1.08081
6669,32.5713,12071.3,1.08118
6682,32.6348,12110.3,1.083954
6695,32.6982,12117.9,1.08733
6708,32.7617,12154,1.08843
6721,32.8252,12165,1.08947
6734,32.8887,12190.6,1.09401
6747,32.9521,12192.4,1.09408
6760,33.0156,12237.1,1.09635
6773,33.0791,12271.7,1.09996
6786,33.1426,12272.2,1.10051
6799,33.2061,12316.3,1.10532
6812,33.2695,12302.8,1.10381
6825,33.333,12355.4,1.10739
6838,33.3965,12365.7,1.10804
6851,33.46,12391.8,1.11201
6864,33.5234,12412.5,1.11474
6877,33.5869,12443.1,1.11689
6890,33.6504,12447.4,1.11828
6903,33.7139,12470.7,1.119226
6916,33.7773,12507.1,1.12361
6929,33.84082,12508.3,1.12504
6942,33.9043,12550,1.12706
6955,33.9678,12543.9,1.130291
6968,34.03125,12583.2,1.13068
6981,34.0947,12598.5,1.13414
6994,34.1582,12618,1.135797
7007,34.22168,12636.7,1.1373
7020,34.2852,12668.3,1.13967
7033,34.3486,12682.3,1.14256
7046,34.4121,12708.3,1.14264
7059,34.4756,12732.5,1.146809
7072,34.5391,12732.9,1.14708
7085,34.6025,12783.4,1.15
7098,34.666,12775.3,1.1506
7111,34.7295,12818.7,1.15488
7124,34.793,12836.6,1.15674
7137,34.8564,12863.6,1.15801
7150,34.9199,12883.7,1.1615
7163,34.9834,12895.4,1.16293
7176,35.0469,12931.1,1.16503
7189,35.1104,12937.9,1.168029
7202,35.1738,12980.7,1.17137
7215,35.2373,12980.8,1.17094
7228,35.3008,13011.6,1.17342
7241,35.3643,13028.9,1.17621
7254,35.4277,13037.8,1.17729
7267,35.4912,13073.1,1.18039
7280,35.5547,13088.9,1.18011
7293,35.6182,13127.1,1.18481
7306,35.6816,13136.1,1.18536
7319,35.7451,13150.9,1.18902
7332,35.8086,13160.2,1.19006
7345,35.87207,13198.4,1.19221
7358,35.9355,13209.9,1.19591
7371,35.999,13254.9,1.19709
7384,36.0625,13267.2,1.20023
7397,36.126,13287.9,1.20112
7410,36.1895,13310.5,1.20305
7423,36.25293,13295.8,1.20531
7436,36.3164,13352.4,1.20815
7449,36.3799,13371.1,1.209953
7462,36.4434,13393.7,1.21096
7475,36.5068,13412.7,1.21361
7488,36.5703,13441.9,1.21776
7501,36.6338,13449,1.21796
7514,36.6973,13485.8,1.21996
7527,36.7607,13496.4,1.22343
7540,36.8242,13501.9,1.22397
7553,36.8877,13552.5,1.22803
7566,36.9512,13528.6,1.2276
7579,37.0146,13590.3,1.23149
7592,37.0781,13595.9,1.23255
7605,37.1416,13635.4,1.23474
7618,37.2051,13628.4,1.23696
7631,37.2686,13663.1,1.23974
7644,37.332,13698.7,1.24091
7657,37.3955,13717,1.2426
7670,37.459,13742.8,1.24526
7683,37.5225,13738.6,1.247261
7696,37.5859,13790.2,1.25209
7709,37.6494,13770.7,1.25217
7722,37.7129,13823.7,1.25358
7735,37.7764,13831.6,1.25707
7748,37.8398,13869,1.25797
7761,37.90332,13888.5,1.26009
7774,37.9668,13902.8,1.261909
7787,38.0303,13913.2,1.26512
7800,38.09375,13943.3,1.266873
7813,38.1572,13973.4,1.26938
7826,38.2207,13959,1.27006
7839,38.28418,14015.1,1.27244
7852,38.3477,14026.2,1.27478
7865,38.4111,14053.4,1.27781
7878,38.4746,14083.2,1.27909
7891,38.5381,14093.2,1.28155
7904,38.6016,14125.6,1.28421
7917,38.665,14133.7,1.28579
7930,38.7285,14146.4,1.28849
7943,38.792,14162.1,1.29031
7956,38.8555,14203.6,1.29164
7969,38.9189,14220.2,1.294399
7982,38.9824,14253.7,1.29728
7995,39.0459,14264.8,1.29836
8008,39.1094,14282.8,1.301333
8021,39.1729,14316,1.30441
8034,39.2363,14333,1.30487
8047,39.2998,14359.5,1.30728
8060,39.3633,14346.3,1.30718
8073,39.4268,14399.2,1.31204
8086,39.4902,14407,1.31399
8099,39.5537,14441,1.31456
8112,39.6172,14433.7,1.31817
8125,39.6807,14485.7,1.320775
8138,39.7441,14480.8,1.32129
8151,39.8076,14516.3,1.32353
8164,39.8711,14541.1,1.32718
8177,39.93457,14541.6,1.32749
8190,39.998,14596.5,1.33131
8203,40.0615,14580.9,1.33088
8216,40.125,14633.6,1.3343
8229,40.1885,14642.6,1.33588
8242,40.252,14674.4,1.33838
8255,40.31543,14678.2,1.34101
8268,40.3789,14714.2,1.34344
8281,40.4424,14732.8,1.346156
8294,40.5059,14745,1.3472
8307,40.5693,14779.4,1.34855
8320,40.6328,14767.5,1.351068
8333,40.6963,14834.1,1.35403
8346,40.7598,14825.4,1.35434
8359,40.8232,14866.3,1.35854
8372,40.8867,14880.7,1.35941
8385,40.9502,14902.8,1.36061
8398,41.0137,14923,1.36531
8411,41.0771,14944.1,1.36609
8424,41.1406,14961.3,1.37071
8437,41.2041,14988.9,1.3682
8450,41.2676,15012.6,1.374
8463,41.3311,15005.4,1.37448
8476,41.3945,15054.2,1.37743
8489,41.458,15053.2,1.37815
8502,41.5215,15088.4,1.38177
8515,41.585,15106.4,1.38434
8528,41.6484,15136.6,1.38488
8541,41.7119,15166,1.38807
8554,41.7754,15164.5,1.38913
8567,41.8389,15208.6,1.39213
8580,41.9023,15209.7,1.39306
8593,41.96582,15255.1,1.39761
8606,42.0293,15249.1,1.39865
8619,42.0928,15273.2,1.40144
8632,42.15625,15289.1,1.40201
8645,42.2197,15337,1.40461
8658,42.2832,15346.2,1.40614
8671,42.34668,15359.2,1.40743
8684,42.4102,15396.5,1.41187
8697,42.4736,15412.1,1.41282
8710,42.5371,15438.1,1.41595
8723,42.6006,15448.7,1.41718
8736,42.6641,15487.4,1.42046
8749,42.7275,15482.9,1.42287
8762,42.791,15517.2,1.423239
8775,42.8545,15541.3,1.42671
8788,42.918,15563,1.42771
8801,42.9814,15594.5,1.43264
8814,43.0449,15583.6,1.43134
8827,43.1084,15627.9,1.43441
8840,43.1719,15638.4,1.43674
8853,43.2354,15669.1,1.43781
8866,43.2988,15687.5,1.4398
8879,43.3623,15699.1,1.44291
8892,43.4258,15728.9,1.44425
8905,43.4893,15762.4,1.44825
8918,43.5527,15775.7,1.44836
8931,43.6162,15779.3,1.45064
8944,43.6797,15825.9,1.45357
8957,43.7432,15827,1.45555
8970,43.8066,15865.4,1.45798
8983,43.8701,15867.9,1.4601
8996,43.9336,15887.5,1.46246
9009,43.99707,15930.9,1.46558
9022,44.0605,15940.8,1.465562
9035,44.124,15965,1.468979
9048,44.1875,15963.7,1.46952
9061,44.251,16018.2,1.47302
9074,44.3145,16017.2,1.47414
9087,44.37793,16058.3,1.47778
9100,44.4414,16060.1,1.47875
9113,44.5049,16096.4,1.4806
9126,44.5684,16119.7,1.48441
9139,44.6318,16139.8,1.48501
9152,44.6953,16161.5,1.4871
9165,44.7588,16155.7,1.48785
9178,44.8223,16194.8,1.49163
9191,44.8857,16215.8,1.49334
9204,44.9492,16243.1,1.49716
9217,45.0127,16240.6,1.4975
9230,45.0762,16285.2,1.50135
9243,45.1396,16279.3,1.50196
9256,45.2031,16333.9,1.50502
9269,45.2666,16354.2,1.50608
9282,45.3301,16364,1.507164
9295,45.3936,16399,1.51284
9308,45.457,16369.7,1.5105
9321,45.5205,16430.4,1.51391
9334,45.584,16448.6,1.51598
9347,45.6475,16477.1,1.51817
9360,45.7109,16485.8,1.52223
9373,45.7744,16526,1.52357
9386,45.8379,16523.5,1.52502
9399,45.9014,16548.8,1.527189
9412,45.9648,16589.9,1.5294
9425,46.02832,16599.9,1.531518
9438,46.0918,16625.4,1.53425
9451,46.1553,16632,1.5361
9464,46.21875,16669.4,1.5382
9477,46.2822,16686.4,1.53982
9490,46.3457,16700.5,1.54238
9503,46.40918,16737.5,1.54324
9516,46.4727,16741,1.54671
9529,46.5361,16774.5,1.5485
9542,46.5996,16783.8,1.55011
9555,46.6631,16813.8,1.55324
9568,46.7266,16814.8,1.55456
9581,46.79,16861.3,1.55717
9594,46.8535,16833.2,1.55744
9607,46.917,16894.1,1.56227
9620,46.9805,16918.2,1.56225
9633,47.0439,16924,1.56388
9646,47.1074,16945.1,1.56861
9659,47.1709,16984.7,1.56975
9672,47.2344,17009.3,1.57226
9685,47.2979,17020.1,1.57294
9698,47.3613,17062.6,1.57611
9711,47.4248,17048.8,1.57759
9724,47.4883,17104.2,1.5816
9737,47.5518,17108.4,1.580406
9750,47.6152,17132.7,1.58505
9763,47.6787,17156.7,1.58671
9776,47.7422,17171.1,1.58855
9789,47.8057,17192.5,1.59035
9802,47.8691,17213.6,1.59235
9815,47.9326,17241.4,1.59579
9828,47.9961,17247.9,1.59702
9841,48.05957,17292.4,1.59923
9854,48.123,17303.2,1.60176
9867,48.1865,17330.8,1.60601
9880,48.25,17333.4,1.60436
9893,48.3135,17368.6,1.607705
9906,48.377,17395,1.61166
9919,48.44043,17401,1.60975
9932,48.5039,17434.4,1.61441
9945,48.5674,17439.7,1.61561
9958,48.6309,17470.7,1.619242
9971,48.6943,17484.5,1.61982
9984,48.7578,17504.5,1.62374
9997,48.8213,17517,1.6261
10010,48.8848,17549.5,1.62731
10023,48.9482,17557.9,1.62957
10036,49.0117,17590.6,1.630686
10049,49.0752,17625.3,1.633052
10062,49.1387,17623.6,1.6339
10075,49.2021,17667,1.63895
10088,49.2656,17668.6,1.637458
10101,49.3291,17710.1,1.641902
10114,49.3926,17704,1.64454
10127,49.4561,17733.5,1.64648
10140,49.5195,17759.8,1.64793
10153,49.583,17793.4,1.6507
10166,49.6465,17801.1,1.6528
10179,49.71,17817.9,1.65368
10192,49.7734,17853.2,1.657545
10205,49.8369,17866.9,1.65662
10218,49.9004,17897.1,1.66164
10231,49.9639,17907.9,1.6625
10244,50.0273,17928.5,1.66482
10257,50.09082,17947.6,1.66689
10270,50.1543,17936.8,1.66771
10283,50.2178,17980.5,1.6707
10296,50.28125,18002.3,1.67298
10309,50.3447,18031.3,1.67437
10322,50.4082,18045,1.67774
10335,50.47168,18056.6,1.67957
10348,50.5352,18079.4,1.67961
10361,50.5986,18114.5,1.68435
10374,50.6621,18136.3,1.68579
10387,50.7256,18127,1.68677
10400,50.7891,18187,1.69066
10413,50.8525,18203.8,1.69241
10426,50.916,18232.9,1.69541
10439,50.9795,18239.9,1.696897
10452,51.043,18258.7,1.69828
10465,51.1064,18284.4,1.70098
10478,51.1699,18311.2,1.70363
10491,51.2334,18317.4,1.70431
10504,51.2969,18355.5,1.70609
10517,51.3604,18369.8,1.71027
10530,51.4238,18375.6,1.71182
10543,51.4873,18411.5,1.71279
10556,51.5508,18433.1,1.71658
10569,51.6143,18456.3,1.7174
10582,51.6777,18476.6,1.72003
10595,51.7412,18485.7,1.72232
10608,51.8047,18519.2,1.72406
10621,51.8682,18546.4,1.726969
10634,51.9316,18540.9,1.72917
10647,51.9951,18595.2,1.732215
10660,52.0586,18591.1,1.73206
10673,52.12207,18634.7,1.73496
10686,52.1855,18641.1,1.73706
10699,52.249,18651.1,1.73789
10712,52.3125,18675.1,1.74066
10725,52.376,18694.8,1.74134
10738,52.4395,18717.5,1.7445
10751,52.5029,18729.3,1.74626
10764,52.5664,18769.8,1.74865
10777,52.6299,18764.9,1.75119
10790,52.6934,18805.8,1.75392
10803,52.7568,18822.3,1.75546
10816,52.8203,18855.5,1.75717
10829,52.8838,18885.8,1.76009
10842,52.9473,18869.7,1.76046
10855,53.0107,18911.5,1.7654
10868,53.0742,18930,1.7666
10881,53.1377,18966.1,1.769671
10894,53.2012,18962.2,1.77025
10907,53.2646,18986.1,1.77403
10920,53.3281,19014.1,1.77457
10933,53.3916,19034.2,1.77782
10946,53.4551,19064.4,1.78032
10959,53.5186,19084.5,1.78189
10972,53.582,19108.7,1.78656
10985,53.6455,19111.8,1.78381
10998,53.709,19141.6,1.78775
11011,53.7725,19138.5,1.78922
11024,53.8359,19187.5,1.79136
11037,53.8994,19211.9,1.79457
11050,53.9629,19218.6,1.79631
11063,54.0264,19232.6,1.79717
11076,54.0898,19266.4,1.79979
11089,54.1533,19295.5,1.80248
11102,54.2168,19303.6,1.80469
11115,54.2803,19338.6,1.80844
11128,54.34375,19316.2,1.80804
11141,54.4072,19386.9,1.81183
11154,54.4707,19396.6,1.81293
11167,54.5342,19420.9,1.8157
11180,54.5977,19437.3,1.81689
11193,54.6611,19445.3,1.81882
11206,54.7246,19475.3,1.82087
11219,54.7881,19501.4,1.82294
11232,54.8516,19529.8,1.82587
11245,54.915,19523.4,1.82977
11258,54.9785,19572.2,1.83066
11271,55.042,19575.8,1.83176
11284,55.1055,19607.6,1.83398
11297,55.1689,19624.8,1.83606
11310,55.2324,19640.4,1.83744
11323,55.2959,19667.8,1.84026
11336,55.3594,19686.5,1.84202
11349,55.4229,19715.6,1.84572
11362,55.4863,19725.2,1.84558
11375,55.5498,19762.4,1.85023
11388,55.6133,19764.6,1.85124
11401,55.6768,19812.3,1.85368
11414,55.7402,19811.3,1.85487
11427,55.8037,19851.9,1.85759
11440,55.8672,19867,1.85924
11453,55.9307,19876.3,1.86153
11466,55.9941,19913,1.86393
11479,56.0576,19896.4,1.86574
11492,56.1211,19950.2,1.86963
11505,56.1846,19969.2,1.87098
11518,56.248,19999.6,1.87275
11531,56.3115,19984.8,1.87519
11544,56.375,20032,1.87902
11557,56.4385,20046.9,1.87932
11570,56.502,20072.4,1.88179
11583,56.5654,20099.9,1.88263
11596,56.6289,20107.1,1.88469
11609,56.6924,20141.5,1.88868
11622,56.7559,20151.5,1.88924
11635,56.8193,20188,1.891517
11648,56.8828,20199.7,1.89532
11661,56.9463,20220.3,1.89611
11674,57.0098,20239.7,1.89781
11687,57.0732,20268.3,1.90115
11700,57.1367,20278.5,1.90154
11713,57.2002,20302.8,1.90433
11726,57.2637,20336,1.90618
11739,57.3271,20310.9,1.90757
11752,57.3906,20371.6,1.91138
11765,57.4541,20350.5,1.91178
11778,57.5176,20413.7,1.91523
11791,57.5811,20432.5,1.91697
11804,57.6445,20445,1.91871
11817,57.708,20464.2,1.921545
11830,57.7715,20496.5,1.92297
11843,57.835,20508.6,1.92541
11856,57.8984,20537.9,1.92794
11869,57.9619,20557,1.92987
11882,58.0254,20568.8,1.93174
11895,58.0889,20597.5,1.935662
11908,58.1523,20610.4,1.93537
11921,58.2158,20641,1.93941
11934,58.2793,20662,1.94097
11947,58.3428,20683,1.94276
11960,58.40625,20708,1.94502
11973,58.4697,20732.1,1.94663
11986,58.5332,20752.4,1.94894
11999,58.5967,20729.1,1.95079
12012,58.6602,20792.2,1.95368
12025,58.7236,20794.9,1.95563
12038,58.7871,20842.6,1.9583
12051,58.8506,20839.3,1.96028
12064,58.9141,20880.4,1.96094
12077,58.9775,20910.1,1.96523
12090,59.041,20927.5,1.96499
12103,59.1045,20935.3,1.96963
12116,59.168,20939.4,1.96939
12129,59.2314,20971.9,1.97131
12142,59.2949,20996.3,1.97538
12155,59.3584,21029.2,1.97786
12168,59.4219,21024.6,1.97854
12181,59.4854,21069.9,1.98105
12194,59.5488,21089.8,1.98202
12207,59.6123,21079.9,1.98446
12220,59.6758,21135,1.98785
12233,59.7393,21137.1,1.98832
12246,59.8027,21168.5,1.99164
12259,59.8662,21180,1.99337
12272,59.9297,21200.9,1.99611
12285,59.9932,21223.7,1.99704
12298,60.0566,21250.1,1.99923
12311,60.1201,21266.8,2.00218
12324,60.1836,21289,2.00431
12337,60.2471,21297.5,2.00586
12350,60.3105,21328,2.00725
12363,60.374,21365.1,2.01111
12376,60.4375,21338.1,2.00997
12389,60.501,21402.3,2.01468
12402,60.5645,21416,2.01656
12415,60.6279,21436.3,2.017514
12428,60.6914,21450.1,2.02017
12441,60.7549,21472.1,2.022238
12454,60.8184,21499.5,2.02433
12467,60.8818,21525.1,2.02766
12480,60.9453,21546.9,2.0288
12493,61.0088,21542.7,2.03134
12506,61.0723,21585.4,2.03265
12519,61.1357,21594,2.03442
12532,61.1992,21623.6,2.03857
12545,61.2627,21636.4,2.03851
12558,61.3262,21654.4,2.04086
12571,61.3896,21683.7,2.04465
12584,61.4531,21706.2,2.045258
12597,61.5166,21724.4,2.047
12610,61.5801,21745.3,2.04883
12623,61.6436,21769.2,2.052953
12636,61.707,21769.2,2.05259
12649,61.7705,21819.8,2.05696
12662,61.834,21807.1,2.05908
12675,61.8975,21855.5,2.06131
12688,61.9609,21855.8,2.06219
12701,62.0244,21888.7,2.06329
12714,62.0879,21914.4,2.06715
12727,62.1514,21899.3,2.06903
12740,62.2148,21952.9,2.07211
12753,62.2783,21973.1,2.07384
12766,62.3418,22002.5,2.07535
12779,62.4053,22009.4,2.07646
12792,62.46875,22035.1,2.07895
12805,62.5322,22046.2,2.081409
12818,62.5957,22082.8,2.0838
12831,62.6592,22097.2,2.08554
12844,62.7227,22103.8,2.08601
12857,62.7861,22147.4,2.09153
12870,62.8496,22125.4,2.09067
12883,62.9131,22181.6,2.09539
12896,62.9766,22199.2,2.09658
12909,63.04,22220.9,2.09767
12922,63.1035,22224.6,2.09952
12935,63.167,22266.6,2.10306
12948,63.2305,22264.7,2.10488
12961,63.2939,22300.8,2.10649
12974,63.3574,22333.5,2.10897
12987,63.4209,22340.9,2.11053
13000,63.4844,22370.7,2.113
13013,63.5479,22366.6,2.11475
13026,63.6113,22409.3,2.11736
13039,63.6748,22425.7,2.11965
13052,63.7383,22448.9,2.12172
13065,63.8018,22467.8,2.124
13078,63.8652,22482.1,2.12598
13091,63.9287,22498.8,2.12853
13104,63.9922,22527.4,2.13143
13117,64.0557,22566.3,2.13382
13130,64.1191,22568.2,2.13458
13143,64.1826,22600.7,2.13606
13156,64.2461,22605.3,2.13917
13169,64.30957,22641.3,2.14054
13182,64.373,22661.8,2.14277
13195,64.4365,22666.1,2.14488
13208,64.5,22689.3,2.14689
13221,64.5635,22716.4,2.1483
13234,64.627,22734.8,2.1515
13247,64.69043,22755.7,2.15206
13260,64.7539,22796.3,2.15702
13273,64.8174,22794.8,2.15736
13286,64.8809,22832.8,2.16158
13299,64.9443,22830.8,2.16291
13312,65.0078,22868.4,2.16508
13325,65.0713,22885.3,2.16728
13338,65.1348,22907.5,2.17015
13351,65.1982,22929.4,2.17148
13364,65.2617,22927.9,2.17166
13377,65.3252,22975.8,2.17593
13390,65.3887,22973.1,2.17687
13403,65.4521,23004.7,2.17837
13416,65.5156,23017.5,2.18145
13429,65.5791,23058.3,2.18212
13442,65.6426,23067.4,2.185
13455,65.7061,23091.8,2.18768
13468,65.7695,23111.5,2.19022
13481,65.833,23112.4,2.19035
13494,65.8965,23152.4,2.19428
13507,65.96,23134.4,2.19387
13520,66.0234,23185.4,2.1989
13533,66.0869,23194,2.20001
13546,66.1504,23214.4,2.20119
13559,66.2139,23221.3,2.20469
13572,66.2773,23272.7,2.20681
13585,66.34082,23281.8,2.20931
13598,66.4043,23305,2.21121
13611,66.4678,23336.4,2.2128
13624,66.53125,23338.6,2.21373
13637,66.5947,23381.1,2.21773
13650,66.6582,23370.9,2.218986
13663,66.72168,23414,2.22146
13676,66.7852,23431.9,2.22391
13689,66.8486,23455.1,2.22541
13702,66.9121,23473.7,2.22918
13715,66.9756,23496.4,2.2293
13728,67.0391,23519.5,2.230464
13741,67.1025,23532.1,2.23425
13754,67.166,23563.9,2.23624
13767,67.2295,23537.2,2.237155
13780,67.293,23603.6,2.240308
13793,67.3564,23606.8,2.24244
13806,67.4199,23643.1,2.24486
13819,67.4834,23647.1,2.24756
13832,67.5469,23668.1,2.24916
13845,67.6104,23699.5,2.25019
13858,67.6738,23721.7,2.25256
13871,67.7373,23736.2,2.25808
13884,67.8008,23760.8,2.25752
13897,67.8643,23788.6,2.25904
13910,67.9277,23794.1,2.26064
13923,67.9912,23824.9,2.26219
13936,68.0547,23814.5,2.265456
13949,68.1182,23868.8,2.26754
13962,68.1816,23896,2.27058
13975,68.2451,23901.6,2.27151
13988,68.3086,23924.3,2.27513
14001,68.37207,23913.7,2.27419
14014,68.4355,23967.2,2.27793
14027,68.499,23973.3,2.27909
14040,68.5625,24011.7,2.2828
14053,68.626,24022.2,2.28464
14066,68.6895,24047.1,2.28739
14079,68.75293,24065.8,2.2884
14092,68.8164,24084.1,2.28953
14105,68.8799,24125.2,2.29389
14118,68.9434,24118.2,2.29258
14131,69.0068,24151.6,2.29809
14144,69.0703,24154,2.29962
14157,69.1338,24197.5,2.301028
14170,69.1973,24219,2.30378
14183,69.2607,24235.9,2.30599
14196,69.3242,24248.5,2.30698
14209,69.3877,24280.5,2.31116
14222,69.4512,24291.9,2.31253
14235,69.5146,24292.5,2.31419
14248,69.5781,24351,2.31719
14261,69.6416,24337.5,2.31837
14274,69.7051,24385.8,2.32143
14287,69.7686,24392.1,2.32261
14300,69.832,24411.8,2.32434
14313,69.8955,24438.2,2.32747
14326,69.959,24462.2,2.329325
14339,70.0225,24466.8,2.33159
14352,70.0859,24499.7,2.33323
14365,70.1494,24523.4,2.33625
14378,70.2129,24538.3,2.33738
14391,70.2764,24575.2,2.34114
14404,70.3398,24563.3,2.3409
14417,70.40332,24606.2,2.34479
14430,70.4668,24622.6,2.34572
14443,70.5303,24638.2,2.34783
14456,70.59375,24661.7,2.351244
14469,70.6572,24680.6,2.3527
14482,70.7207,24708.6,2.35478
14495,70.78418,24713.3,2.35653
14508,70.8477,24747.7,2.35823
14521,70.9111,24772.6,2.36107
14534,70.9746,24794.9,2.36368
14547,71.0381,24793.3,2.36637
14560,71.1016,24827.3,2.36792
14573,71.165,24840.8,2.36979
14586,71.2285,24856.1,2.37105
14599,71.292,24877.7,2.37437
14612,71.3555,24898.2,2.37573
14625,71.4189,24931.1,2.37803
14638,71.4824,24938.4,2.3788
14651,71.5459,24956,2.380923
14664,71.6094,24986.6,2.38291
14677,71.6729,25017.8,2.38664
14690,71.7363,25022.4,2.38695
14703,71.7998,25041.7,2.38959
14716,71.8633,25072.7,2.39299
14729,71.9268,25071.3,2.39402
14742,71.9902,25116.3,2.39753
14755,72.0537,25127.2,2.39872
14768,72.1172,25159,2.4018
14781,72.1807,25167.4,2.40289
14794,72.2441,25198,2.405354
14807,72.3076,25208.2,2.40793
14820,72.3711,25237.7,2.41052
14833,72.43457,25247.2,2.41344
14846,72.498,25279.7,2.4144
14859,72.5615,25293.3,2.41541
14872,72.625,25287.6,2.41804
14885,72.6885,25337.4,2.42047
14898,72.752,25335.2,2.42283
14911,72.81543,25367.9,2.424309
14924,72.8789,25396,2.42633
14937,72.9424,25413,2.43009
14950,73.0059,25429,2.4323
14963,73.0693,25456.9,2.43202
14976,73.1328,25479.4,2.43591
14989,73.1963,25495.5,2.43707
15002,73.2598,25517.7,2.43941
15015,73.3232,25515.1,2.44068
15028,73.3867,25563.6,2.44416
15041,73.4502,25540.9,2.44483
15054,73.5137,25600.8,2.44798
15067,73.5771,25612.2,2.45091
15080,73.6406,25624.4,2.4497
15093,73.7041,25656.5,2.45448
15106,73.7676,25662.9,2.45472
15119,73.8311,25696.3,2.45753
15132,73.8945,25711.1,2.4602
15145,73.958,25735,2.46168
15158,74.0215,25743.4,2.46378
15171,74.085,25778.1,2.46641
15184,74.1484,25776.7,2.4676
15197,74.2119,25812,2.47082
15210,74.2754,25838.6,2.47282
15223,74.3389,25857.7,2.47497
15236,74.4023,25880.6,2.4771
15249,74.46582,25893.4,2.478873
15262,74.5293,25925.3,2.48168
15275,74.5928,25930.3,2.48231
15288,74.65625,25955.9,2.48602
15301,74.7197,25980.8,2.48707
15314,74.7832,26012.6,2.48985
15327,74.84668,26025.1,2.49151
15340,74.9102,26033.1,2.49426
15353,74.9736,26063.5,2.49738
15366,75.0371,26061.2,2.49685
15379,75.1006,26111.1,2.50056
15392,75.1641,26099.3,2.5026
15405,75.2275,26141.6,2.503644
15418,75.291,26150.7,2.50651
15431,75.3545,26179.8,2.50779
15444,75.418,26204.5,2.51125
15457,75.4814,26225.7,2.51308
15470,75.5449,26249.7,2.51578
15483,75.6084,26264.7,2.516279
15496,75.6719,26289.1,2.520766
15509,75.7354,26288.4,2.52081
15522,75.7988,26337.1,2.5234
15535,75.8623,26337.9,2.52492
15548,75.9258,26372.4,2.52922
15561,75.9893,26395.2,2.53037
15574,76.0527,26404.4,2.53005
15587,76.1162,26435.3,2.53508
15600,76.1797,26462.7,2.53726
15613,76.2432,26473.4,2.53816
15626,76.3066,26489.1,2.538945
15639,76.3701,26517.4,2.54414
15652,76.4336,26502.4,2.54383
15665,76.49707,26551.5,2.54728
15678,76.5605,26576.4,2.549819
15691,76.624,26578.1,2.55112
15704,76.6875,26607.6,2.55299
15717,76.751,26636.3,2.55479
15730,76.8145,26654.9,2.55938
15743,76.87793,26677.1,2.56018
15756,76.9414,26698.1,2.56374
15769,77.0049,26703.9,2.56362
15782,77.0684,26735.5,2.56641
15795,77.1318,26758,2.56908
15808,77.1953,26768.9,2.56896
15821,77.2588,26801.3,2.57309
15834,77.3223,26809.7,2.57449
15847,77.3857,26844.9,2.577487
15860,77.4492,26847.4,2.5792
15873,77.5127,26883.7,2.58171
15886,77.5762,26886.6,2.58208
15899,77.6396,26902.4,2.58592
15912,77.7031,26938.5,2.58684
15925,77.7666,26957.6,2.58972
15938,77.8301,26977.6,2.59116
15951,77.8936,27005.4,2.59355
15964,77.957,27016.7,2.59582
15977,78.0205,27035.9,2.59655
15990,78.084,27078.1,2.601824
16003,78.1475,27036.1,2.60049
16016,78.2109,27104.1,2.60449
16029,78.2744,27123.5,2.60627
16042,78.3379,27136.6,2.60818
16055,78.4014,27148.5,2.61061
16068,78.4648,27182.9,2.61316
16081,78.52832,27179.8,2.61584
16094,78.5918,27219.7,2.61726
16107,78.6553,27252.2,2.61942
16120,78.71875,27256.8,2.62058
16133,78.7822,27302.6,2.62416
16146,78.8457,27263.7,2.62457
16159,78.90918,27320.6,2.62732
16172,78.9727,27335.2,2.62847
16185,79.0361,27358,2.63134
16198,79.0996,27384.1,2.63289
16211,79.1631,27391.8,2.63438
16224,79.2266,27412.6,2.63904
16237,79.29,27445.1,2.64023
16250,79.3535,27475.7,2.64202
16263,79.417,27469.2,2.6438
16276,79.4805,27513.5,2.64619
16289,79.5439,27503.2,2.64881
16302,79.6074,27538.1,2.64942
16315,79.6709,27567,2.65211
16328,79.7344,27589.5,2.65491
16341,79.7979,27588.6,2.65752
16354,79.8613,27625.6,2.65834
16367,79.9248,27643.5,2.66046
16380,79.9883,27667.4,2.66311
16393,80.0518,27695.1,2.66626
16406,80.1152,27706.3,2.6686
16419,80.1787,27719.9,2.669579
16432,80.2422,27735.3,2.6716
16445,80.3057,27763.3,2.6741
16458,80.3691,27786.6,2.67654
16471,80.4326,27793.3,2.67775
16484,80.4961,27830.7,2.67975
16497,80.55957,27811.3,2.68103
16510,80.623,27872.7,2.68402
16523,80.6865,27872,2.68556
16536,80.75,27905.8,2.68991
16549,80.8135,27921.2,2.69106
16562,80.877,27947,2.69362
16575,80.94043,27960.6,2.69458
16588,81.0039,27978.8,2.6963
16601,81.0674,28002.1,2.69748
16614,81.1309,28005.3,2.69967
16627,81.1943,28044.3,2.70439
16640,81.2578,28048.4,2.70493
16653,81.3213,28087.4,2.70754
16666,81.3848,28088.6,2.70939
16679,81.4482,28124.8,2.71206
16692,81.5117,28135.3,2.71468
16705,81.5752,28167.2,2.71462
16718,81.6387,28185.5,2.71753
16731,81.7021,28195.1,2.718302
16744,81.7656,28233.9,2.72371
16757,81.8291,28222.8,2.72333
16770,81.8926,28267.4,2.7265
16783,81.9561,28270.6,2.72787
16796,82.0195,28294.4,2.73203
16809,82.083,28325.3,2.732785
16822,82.1465,28337.1,2.73483
16835,82.21,28369,2.73752
16848,82.2734,28363.4,2.73818
16861,82.3369,28414.2,2.74152
16874,82.4004,28426.2,2.74201
16887,82.4639,28458.4,2.746
16900,82.5273,28455,2.74727
16913,82.59082,28500.8,2.75128
16926,82.6543,28506.1,2.75162
16939,82.7178,28514.6,2.75295
16952,82.78125,28551.2,2.75578
16965,82.8447,28555.1,2.758369
16978,82.9082,28590.6,2.75907
16991,82.97168,28607.9,2.76199
17004,83.0352,28632.9,2.76471
17017,83.0986,28621.7,2.766871
17030,83.1621,28679.1,2.76915
17043,83.2256,28680.6,2.770236
17056,83.2891,28718.3,2.774334
17069,83.3525,28738.5,2.77515
17082,83.416,28738.6,2.77582
17095,83.4795,28771.1,2.77739
17108,83.543,28778.5,2.78038
17121,83.6064,28818.2,2.78569
17134,83.6699,28820.7,2.78482
17147,83.7334,28846.8,2.78785
17160,83.7969,28866.2,2.78956
17173,83.8604,28895.4,2.79236
17186,83.9238,28885.4,2.794
17199,83.9873,28934.2,2.79741
17212,84.0508,28958.4,2.79855
17225,84.1143,28966.7,2.799983
17238,84.1777,28999.8,2.80349
17251,84.2412,29004.7,2.80412
17264,84.3047,29038.4,2.8082
17277,84.3682,29040.6,2.808363
17290,84.4316,29073.5,2.81052
17303,84.4951,29085.6,2.81266
17316,84.5586,29103.9,2.81527
17329,84.62207,29131.4,2.81652
17342,84.6855,29157.3,2.81937
17355,84.749,29180.9,2.82154
17368,84.8125,29182.5,2.82284
17381,84.876,29222.8,2.82555
17394,84.9395,29227,2.82804
17407,85.00293,29250,2.8307
17420,85.0664,29267.4,2.83234
17433,85.1299,29304.9,2.83426
17446,85.1934,29313.1,2.83528
17459,85.2568,29333.4,2.83885
17472,85.3203,29364,2.84129
17485,85.3838,29379,2.84317
17498,85.4473,29411.6,2.84599
17511,85.5107,29384.5,2.84861
17524,85.5742,29447.3,2.85001
17537,85.6377,29435,2.85058
17550,85.7012,29481.8,2.85364
17563,85.7646,29482.6,2.85583
17576,85.8281,29509.2,2.85652
17589,85.8916,29538.4,2.85968
17602,85.9551,29562.3,2.862402
17615,86.0186,29586.7,2.86508
17628,86.082,29597,2.86702
17641,86.1455,29618.4,2.8684
17654,86.209,29630.5,2.87057
17667,86.2725,29668.8,2.8722
17680,86.3359,29670.3,2.87394
17693,86.3994,29707.3,2.87709
17706,86.4629,29728.4,2.87903
17719,86.5264,29731.4,2.88045
17732,86.5898,29763.2,2.88411
17745,86.65332,29765.9,2.88597
17758,86.7168,29809.9,2.88756
17771,86.7803,29818.9,2.88873
17784,86.84375,29847,2.89183
17797,86.9072,29845.3,2.89426
17810,86.9707,29886.4,2.89556
17823,87.03418,29900.3,2.89821
17836,87.0977,29917.3,2.90029
17849,87.1611,29949.4,2.90261
17862,87.2246,29944.4,2.90227
17875,87.2881,29977.8,2.90787
17888,87.3516,29973.5,2.90696
17901,87.415,30027.6,2.91142
17914,87.4785,30040.3,2.91303
17927,87.542,30053.1,2.91438
17940,87.6055,30076.4,2.91693
17953,87.6689,30095.7,2.91908
17966,87.7324,30122.2,2.92282
17979,87.7959,30143.5,2.92407
17992,87.8594,30171.5,2.92597
18005,87.9229,30161.9,2.92688
18018,87.9863,30207.9,2.92929
18031,88.0498,30210.7,2.93151
18044,88.1133,30241.2,2.93383
18057,88.1768,30263.7,2.93624
18070,88.2402,30285.9,2.93894
18083,88.3037,30300.6,2.94041
18096,88.3672,30297.8,2.94148
18109,88.4307,30331.6,2.944154
18122,88.4941,30333.2,2.94546
18135,88.5576,30371,2.9491
18148,88.6211,30394.4,2.95088
18161,88.68457,30422.1,2.95457
18174,88.748,30426.2,2.95502
18187,88.8115,30453.3,2.95748
18200,88.875,30471.9,2.95945
18213,88.9385,30490.3,2.96155
18226,89.002,30519.2,2.96411
18239,89.06543,30532.6,2.96524
18252,89.1289,30559,2.96748
18265,89.1924,30571.3,2.97075
18278,89.2559,30595.1,2.97229
18291,89.3193,30598.2,2.97433
18304,89.3828,30608.4,2.97705
18317,89.4463,30613.8,2.97891
18330,89.5098,30639.5,2.978704
18343,89.5732,30658.6,2.98384
18356,89.6367,30677.5,2.98445
18369,89.7002,30707.9,2.98578
18382,89.7637,30709.2,2.98853
18395,89.8271,30740.9,2.990628
18408,89.8906,30748.1,2.99305
18421,89.9541,30779,2.99588
18434,90.0176,30796.6,2.99791
18447,90.0811,30821,2.99904
18460,90.1445,30826.9,3.00142
18473,90.208,30860.5,3.00491
18486,90.2715,30878.2,3.00598
18499,90.335,30886.9,3.00811
18512,90.3984,30916.1,3.00965
18525,90.4619,30932.3,3.01208
18538,90.5254,30959.8,3.01442
18551,90.5889,30975,3.01602
18564,90.6523,30991.4,3.0178
18577,90.71582,31009.4,3.02054
18590,90.7793,31038.6,3.0233
18603,90.8428,31043.2,3.02455
18616,90.90625,31070.8,3.02781
18629,90.9697,31097.1,3.02825
18642,91.0332,31093.7,3.03133
18655,91.09668,31131.1,3.03409
18668,91.1602,31145.2,3.03458
18681,91.2236,31185.6,3.03774
18694,91.2871,31203.3,3.03944
18707,91.3506,31182.6,3.04095
18720,91.4141,31227.8,3.04471
18733,91.4775,31255,3.04532
18746,91.541,31276.7,3.04805
18759,91.6045,31279.7,3.04984
18772,91.668,31307.9,3.05368
18785,91.7314,31310.3,3.05309
18798,91.7949,31355.7,3.05543
18811,91.8584,31355.8,3.05842
18824,91.9219,31380.9,3.06002
18837,91.9854,31409.3,3.06327
18850,92.0488,31424,3.0644
18863,92.1123,31438.3,3.0654
18876,92.1758,31450.4,3.0684
18889,92.2393,31479.3,3.07116
18902,92.3027,31496.8,3.07265
18915,92.3662,31521.6,3.07616
18928,92.4297,31539.2,3.07749
18941,92.4932,31563,3.07973
18954,92.5566,31566.3,3.08161
18967,92.6201,31586.5,3.08403
18980,92.6836,31618.8,3.08691
18993,92.74707,31622.3,3.08706
19006,92.8105,31660.8,3.09039
19019,92.874,31656.2,3.09161
19032,92.9375,31698.2,3.09356
19045,93.001,31715.8,3.09721
19058,93.0645,31730.1,3.09819
19071,93.12793,31748.3,3.09961
19084,93.1914,31767.1,3.10345
19097,93.2549,31797.1,3.10643
19098,93.2598,7429.89,3.28239