File: ASM109_2021_data/MTS/90/MTS_90_3.csv
,Time [s],Load [N],Displacement [mm]
0,0.0078125,339.142,0.195723
6,0.0371094,338.474,0.197175
12,0.06640625,343.637,0.196055
18,0.0957031,348.966,0.197908
24,0.125,368.641,0.200458
30,0.154297,373.439,0.201116
36,0.183594,371.116,0.20236
42,0.212891,372.345,0.20142
48,0.2421875,378.579,0.202893
54,0.271484,392.829,0.205997
60,0.300781,380.279,0.20629
66,0.330078,395.525,0.206079
72,0.359375,389.438,0.206705
78,0.388672,406.631,0.209767
84,0.417969,401.831,0.20913
90,0.447266,424.225,0.210181
96,0.4765625,414.282,0.211819
102,0.505859,418.63,0.211608
108,0.535156,423.094,0.214269
114,0.564453,437.754,0.213625
120,0.59375,431.738,0.215878
126,0.623047,425.012,0.2152276
132,0.652344,435.37,0.216433
138,0.681641,451.309,0.219015
144,0.7109375,441.248,0.218818
150,0.740234,457.078,0.220234
156,0.769531,462.413,0.220524
162,0.798828,460.354,0.221415
168,0.828125,460.597,0.222899
174,0.857422,483.457,0.224336
180,0.886719,474.825,0.22419
186,0.916016,472.707,0.224569
192,0.9453125,480.298,0.2269721
198,0.974609,492.481,0.228031
204,1.00391,495.676,0.229515
210,1.0332,483.882,0.22959
216,1.0625,500.69,0.229479
222,1.0918,505.844,0.230484
228,1.12109,507.785,0.232794
234,1.15039,512.706,0.234228
240,1.17969,515.802,0.235673
246,1.20898,516.501,0.233806
252,1.23828,528.234,0.235502
258,1.26758,534.803,0.237232
264,1.296875,537.328,0.237619
270,1.32617,536.288,0.237222
276,1.35547,538.206,0.23921
282,1.38477,554.826,0.242175
288,1.41406,544.509,0.242672
294,1.44336,561.127,0.243123
300,1.47266,568.061,0.246034
306,1.50195,567.116,0.24343
312,1.53125,572.455,0.245969
318,1.56055,575.718,0.245823
324,1.58984,573.875,0.248265
330,1.61914,574.46,0.249381
336,1.64844,580.743,0.249817
342,1.67773,599.055,0.25256
348,1.70703,593.922,0.253376
354,1.73633,604.79,0.25221
360,1.765625,602.555,0.253769
366,1.79492,610.086,0.254477
372,1.82422,613.567,0.257531
378,1.85352,615.625,0.257238
384,1.88281,618.047,0.25677
390,1.91211,612.734,0.258937
396,1.94141,642.911,0.260196
402,1.9707,638.545,0.260164
408,2.0,639.41,0.2628243
414,2.0293,636.917,0.2618587
420,2.05859,640.867,0.263214
426,2.08789,653.491,0.263944
432,2.11719,649.466,0.265549
438,2.14648,665.319,0.268003
444,2.17578,666.266,0.268149
450,2.20508,654.891,0.267588
456,2.234375,673.981,0.269226
462,2.26367,678.406,0.270009
468,2.29297,686.843,0.2729094
474,2.32227,677.553,0.273614
480,2.35156,678.093,0.272351
486,2.38086,711.999,0.275327
492,2.41016,695.718,0.276003
498,2.43945,705.325,0.275438
504,2.46875,707.723,0.276618
510,2.49805,711.259,0.277054
516,2.52734,700.675,0.278664
522,2.55664,723.519,0.281113
528,2.58594,719.454,0.281214
534,2.61523,716.535,0.279901
540,2.64453,732.354,0.283338
546,2.67383,735.862,0.283717
552,2.703125,736.315,0.286077
558,2.73242,752.46,0.2841
564,2.76172,751.01,0.287672
570,2.79102,753.881,0.2871573
576,2.82031,752.59,0.2889812
582,2.84961,762.635,0.292107
588,2.87891,760.624,0.290823
594,2.9082,763.469,0.289596
600,2.9375,773.603,0.291692
606,2.9668,783.15,0.293409
612,2.99609,789.369,0.296413
618,3.02539,784.328,0.295286
624,3.05469,784.104,0.295633
630,3.08398,801.653,0.298669
636,3.11328,784.228,0.299406
642,3.14258,803.901,0.299352
648,3.171875,806.975,0.300629
654,3.20117,811.174,0.301741
660,3.23047,803.761,0.301173
666,3.25977,825.294,0.3042376
672,3.28906,819.839,0.30373
678,3.31836,826.744,0.305521
684,3.34766,827.967,0.306391
690,3.37695,843.881,0.309588
696,3.40625,841.99,0.308304
702,3.43555,853.433,0.310138
708,3.46484,840.898,0.309691
714,3.49414,852.425,0.311251
720,3.52344,856.973,0.31399
726,3.55273,863.204,0.314645
732,3.58203,869.011,0.3145051
738,3.61133,864.743,0.316114
744,3.640625,860.824,0.31414
750,3.66992,889.541,0.317298
756,3.69922,889.733,0.321615
762,3.72852,895.769,0.318786
768,3.75781,882.497,0.320088
774,3.78711,890.489,0.321926
780,3.81641,903.403,0.319426
786,3.8457,913.19,0.321733
792,3.875,907.703,0.32395
798,3.9043,904.121,0.324447
804,3.93359,903.927,0.325781
810,3.96289,927.263,0.328234
816,3.99219,917.967,0.328588
822,4.02148,921.018,0.327655
828,4.05078,925.12,0.329615
834,4.08008,935.415,0.332204
840,4.109375,943.815,0.333123
846,4.13867,953.342,0.331939
852,4.16797,943.937,0.333763
858,4.19727,953.287,0.333463
864,4.22656,957.623,0.335011
870,4.25586,980.52,0.336721
876,4.28516,962.937,0.339046
882,4.31445,958.7,0.337636
888,4.34375,970.335,0.340279
894,4.37305,991.768,0.341145
900,4.40234,986.316,0.341978
906,4.43164,972.379,0.343612
912,4.46094,986.08,0.344017
918,4.49023,996.48,0.343645
924,4.51953,1002.22,0.344971
930,4.54883,1002.32,0.345783
936,4.578125,1005.8,0.34829
942,4.60742,1011.03,0.347303
948,4.63672,1009.19,0.349106
954,4.66602,1029.97,0.3490448
960,4.69531,1022.65,0.353208
966,4.72461,1027.04,0.351799
972,4.75391,1025.15,0.352657
978,4.7832,1034.16,0.355775
984,4.8125,1034.07,0.356047
990,4.8418,1041.23,0.355629
996,4.87109,1048.57,0.357603
1002,4.90039,1048.01,0.3570056
1008,4.92969,1043.95,0.359062
1014,4.95898,1063.5,0.360417
1020,4.98828,1063.19,0.361859
1026,5.01758,1068.97,0.361859
1032,5.046875,1066.22,0.361726
1038,5.07617,1076.3,0.363404
1044,5.10547,1079.77,0.364884
1050,5.13477,1084.35,0.366039
1056,5.16406,1087.49,0.366025
1062,5.19336,1086.82,0.367495
1068,5.22266,1100.99,0.368139
1074,5.25195,1115.56,0.36968
1080,5.28125,1111.96,0.370989
1086,5.31055,1094.6,0.371354
1092,5.33984,1114.65,0.372148
1098,5.36914,1124.9,0.374715
1104,5.39844,1113.13,0.374708
1110,5.42773,1123.4,0.375391
1116,5.45703,1122.11,0.373836
1122,5.48633,1130.13,0.378499
1128,5.515625,1137.94,0.378649
1134,5.54492,1148.54,0.3793788
1140,5.57422,1144.66,0.37945
1146,5.60352,1148.48,0.381575
1152,5.63281,1158.72,0.382347
1158,5.66211,1159.64,0.384221
1164,5.69141,1173.95,0.385387
1170,5.7207,1156.01,0.385391
1176,5.75,1167.45,0.386095
1182,5.7793,1181.31,0.387722
1188,5.80859,1171.41,0.38808
1194,5.83789,1186,0.389017
1200,5.86719,1179.22,0.389264
1206,5.89648,1187.72,0.391148
1212,5.92578,1186.98,0.391892
1218,5.95508,1209.1,0.393841
1224,5.984375,1198.79,0.395454
1230,6.01367,1204.67,0.394664
1236,6.04297,1200.37,0.395619
1242,6.07227,1222.65,0.397779
1248,6.10156,1217.2,0.398762
1254,6.13086,1223.65,0.398244
1260,6.16016,1229.76,0.40015
1266,6.18945,1238.79,0.401806
1272,6.21875,1230.46,0.402099
1278,6.24805,1239.84,0.403311
1284,6.27734,1245.62,0.405046
1290,6.30664,1242.05,0.405725
1296,6.33594,1242.05,0.404091
1302,6.36523,1262.35,0.407134
1308,6.39453,1255.79,0.409341
1314,6.42383,1257.7,0.4088974
1320,6.453125,1252.59,0.40737
1326,6.48242,1278.22,0.412012
1332,6.51172,1279.49,0.412506
1338,6.54102,1287.98,0.414366
1344,6.57031,1272.42,0.413543
1350,6.59961,1284.65,0.414934
1356,6.62891,1287.97,0.415438
1362,6.6582,1302.74,0.417963
1368,6.6875,1304.19,0.417573
1374,6.7168,1295.09,0.417259
1380,6.74609,1301.35,0.418979
1386,6.77539,1315.9,0.4210639
1392,6.80469,1303.17,0.421829
1398,6.83398,1320.86,0.421593
1404,6.86328,1321.04,0.424361
1410,6.89258,1336.59,0.423782
1416,6.921875,1334.44,0.426503
1422,6.95117,1346.36,0.426643
1428,6.98047,1341.87,0.428292
1434,7.00977,1333.72,0.428145
1440,7.03906,1347.85,0.428456
1446,7.06836,1352.1,0.429586
1452,7.09766,1354.88,0.432776
1458,7.12695,1350.26,0.431403
1464,7.15625,1353.49,0.432411
1470,7.18555,1367.93,0.433892
1476,7.21484,1364.12,0.435508
1482,7.24414,1370.56,0.435977
1488,7.27344,1372.18,0.43744
1494,7.30273,1379.38,0.437104
1500,7.33203,1380.81,0.439113
1506,7.36133,1398.11,0.440762
1512,7.390625,1401.04,0.442135
1518,7.41992,1399.37,0.440723
1524,7.44922,1402.11,0.440773
1530,7.47852,1405.19,0.44554
1536,7.50781,1410.85,0.444288
1542,7.53711,1415.31,0.446119
1548,7.56641,1416.94,0.446924
1554,7.5957,1414.38,0.446752
1560,7.625,1429.07,0.448751
1566,7.6543,1431.34,0.450261
1572,7.68359,1435.62,0.450858
1578,7.71289,1435.4,0.451634
1584,7.74219,1439.04,0.451634
1590,7.77148,1444.43,0.453794
1596,7.80078,1458.13,0.455561
1602,7.83008,1452.95,0.455232
1608,7.859375,1448.24,0.456333
1614,7.88867,1459.46,0.456834
1620,7.91797,1461.55,0.457567
1626,7.94727,1476.53,0.458053
1632,7.97656,1476.67,0.460964
1638,8.00586,1473.11,0.460442
1644,8.03516,1479.15,0.46139
1650,8.06445,1487.18,0.464437
1656,8.09375,1488.28,0.466075
1662,8.12305,1483.04,0.464069
1668,8.15234,1494.72,0.466086
1674,8.18164,1505.2,0.46723
1680,8.21094,1499.67,0.466862
1686,8.24023,1517.17,0.469451
1692,8.26953,1519.62,0.470284
1698,8.29883,1521.09,0.470549
1704,8.328125,1518.69,0.471368
1710,8.35742,1542.51,0.474139
1716,8.38672,1531.25,0.47454
1722,8.41602,1534.07,0.475248
1728,8.44531,1529.64,0.476475
1734,8.47461,1541.7,0.476789
1740,8.50391,1543.56,0.477394
1746,8.5332,1537.51,0.479465
1752,8.5625,1553.8,0.480251
1758,8.5918,1558.61,0.481617
1764,8.62109,1564.19,0.482969
1770,8.65039,1576.12,0.482837
1776,8.67969,1569.66,0.484282
1782,8.70898,1569.69,0.483727
1788,8.73828,1569.4,0.484139
1794,8.76758,1583.47,0.487397
1800,8.796875,1581.87,0.48828
1806,8.82617,1588.78,0.488648
1812,8.85547,1591.1,0.490201
1818,8.88477,1595.83,0.492189
1824,8.91406,1600.71,0.493072
1830,8.94336,1599.33,0.49226
1836,8.97266,1608.15,0.494664
1842,9.00195,1608.62,0.495154
1848,9.03125,1618.32,0.494771
1854,9.06055,1625.1,0.497096
1860,9.08984,1622.13,0.497664
1866,9.11914,1627.94,0.498848
1872,9.14844,1630.1,0.49775
1878,9.17773,1632.09,0.501562
1884,9.20703,1632.81,0.500933
1890,9.23633,1657.24,0.501999
1896,9.265625,1654.82,0.503179
1902,9.29492,1652.44,0.504109
1908,9.32422,1647.3,0.504173
1914,9.35352,1662.33,0.506619
1920,9.38281,1659.55,0.508239
1926,9.41211,1658.44,0.507545
1932,9.44141,1672.3,0.5084753
1938,9.4707,1687.11,0.510131
1944,9.5,1674.17,0.511504
1950,9.5293,1673.41,0.512027
1956,9.55859,1682.22,0.512946
1962,9.58789,1688.67,0.514294
1968,9.61719,1689.56,0.515932
1974,9.64648,1696.92,0.516683
1980,9.67578,1710.95,0.518188
1986,9.70508,1692.21,0.518811
1992,9.734375,1695.97,0.517863
1998,9.76367,1713.74,0.521904
2004,9.79297,1718.42,0.522172
2010,9.82227,1716.19,0.522974
2016,9.85156,1712.85,0.522412
2022,9.88086,1729.12,0.525674
2028,9.91016,1735.83,0.524422
2034,9.93945,1737.17,0.525148
2040,9.96875,1724.66,0.52645
2046,9.99805,1750.14,0.526471
2052,10.0273,1727.2,0.526836
2058,10.0566,1749.67,0.530144
2064,10.0859,1746.09,0.532079
2070,10.1152,1755.82,0.529958
2076,10.1445,1756.69,0.532987
2082,10.1738,1759.85,0.532765
2088,10.2031,1773.22,0.53544
2094,10.2324,1782.18,0.536399
2100,10.2617,1772.62,0.53598
2106,10.291,1787.76,0.537783
2112,10.3203,1778.9,0.537293
2118,10.3496,1792.48,0.539635
2124,10.3789,1796.23,0.539796
2130,10.4082,1801.77,0.54073
2136,10.4375,1804.96,0.541731
2142,10.4668,1815.71,0.543466
2148,10.4961,1809.38,0.546076
2154,10.5254,1800.58,0.545969
2160,10.5547,1824.55,0.545293
2166,10.584,1825.77,0.545801
2172,10.6133,1815.73,0.54839
2178,10.6426,1827.04,0.548329
2184,10.6719,1818.44,0.549198
2190,10.7012,1830.56,0.5502069
2196,10.7305,1832.36,0.551033
2202,10.7598,1848.71,0.553626
2208,10.7891,1840.99,0.554652
2214,10.8184,1841.96,0.554223
2220,10.8477,1842.37,0.55388
2226,10.877,1864.87,0.556673
2232,10.90625,1860.15,0.558879
2238,10.9355,1862.7,0.559015
2244,10.9648,1866.72,0.559756
2250,10.9941,1878.6,0.559777
2256,11.0234,1861.16,0.560406
2262,11.0527,1885.89,0.563571
2268,11.082,1882.74,0.564147
2274,11.1113,1881.52,0.564444
2280,11.1406,1868.94,0.565013
2286,11.1699,1892.35,0.566454
2292,11.1992,1894.16,0.567402
2298,11.2285,1905.4,0.5686
2304,11.2578,1893.79,0.568489
2310,11.2871,1913.33,0.57233
2316,11.3164,1901.92,0.571071
2322,11.3457,1911.16,0.572473
2328,11.375,1920.27,0.573689
2334,11.4043,1917.74,0.575055
2340,11.4336,1930.47,0.574168
2346,11.4629,1923.08,0.57695
2352,11.4922,1941.57,0.578184
2358,11.5215,1934.16,0.577426
2364,11.5508,1932.48,0.577297
2370,11.5801,1952.66,0.579354
2376,11.6094,1951.3,0.581281
2382,11.6387,1962.8,0.582887
2388,11.668,1952.48,0.584321
2394,11.6973,1965.99,0.584285
2400,11.7266,1960.54,0.585705
2406,11.7559,1973.39,0.5862844
2412,11.7852,1965.4,0.587443
2418,11.8145,1978.48,0.588387
2424,11.84375,1979.85,0.588026
2430,11.873,1990.77,0.589231
2436,11.9023,1990.35,0.591742
2442,11.9316,1995.14,0.591341
2448,11.9609,1992.04,0.593001
2454,11.9902,1997.4,0.594528
2460,12.0195,1994.46,0.596226
2466,12.0488,2019.87,0.5964911
2472,12.0781,2023.32,0.597811
2478,12.1074,2017.54,0.596831
2484,12.1367,2017.98,0.597711
2490,12.166,2024.54,0.599982
2496,12.1953,2032.94,0.60168
2502,12.2246,2026.61,0.602188
2508,12.2539,2020.36,0.601684
2514,12.2832,2040.28,0.604094
2520,12.3125,2037.47,0.604581
2526,12.3418,2037.93,0.607488
2532,12.3711,2044.51,0.606723
2538,12.4004,2048.56,0.607027
2544,12.4297,2045.32,0.608622
2550,12.459,2071.63,0.611004
2556,12.4883,2060.42,0.611976
2562,12.5176,2062.86,0.609684
2568,12.5469,2065.15,0.611343
2574,12.5762,2069.59,0.614287
2580,12.6055,2077.46,0.615413
2586,12.6348,2086.87,0.61645
2592,12.6641,2079.92,0.6142652
2598,12.6934,2091.7,0.617294
2604,12.7227,2087.43,0.618342
2610,12.752,2098.26,0.620996
2616,12.78125,2108.46,0.620366
2622,12.8105,2100.81,0.621225
2628,12.8398,2109.8,0.621711
2634,12.8691,2113.43,0.623492
2640,12.8984,2125.25,0.625774
2646,12.9277,2117.19,0.624493
2652,12.957,2112.23,0.625137
2658,12.9863,2126.39,0.62808
2664,13.0156,2127.48,0.630194
2670,13.0449,2133.1,0.629271
2676,13.0742,2140.74,0.631381
2682,13.1035,2139.85,0.630119
2688,13.1328,2140.17,0.630759
2694,13.1621,2152.81,0.633187
2700,13.1914,2155.22,0.634743
2706,13.2207,2143.88,0.634693
2712,13.25,2153.08,0.634156
2718,13.2793,2167.14,0.638105
2724,13.3086,2158,0.637075
2730,13.3379,2170.09,0.6401217
2736,13.3672,2175.12,0.6396
2742,13.3965,2184.8,0.641127
2748,13.4258,2172.54,0.640873
2754,13.4551,2198.41,0.644131
2760,13.4844,2191.33,0.644596
2766,13.5137,2191.04,0.644864
2772,13.543,2186.37,0.644964
2778,13.5723,2209.24,0.647124
2784,13.6016,2213.53,0.64804
2790,13.6309,2206.96,0.648347
2796,13.6602,2198.33,0.6499064
2802,13.6895,2224.56,0.650235
2808,13.71875,2216.57,0.651666
2814,13.748,2227.1,0.651988
2820,13.7773,2230.09,0.654899
2826,13.8066,2224.64,0.653622
2832,13.8359,2223.08,0.654459
2838,13.8652,2243.45,0.65751
2844,13.8945,2244.76,0.657792
2850,13.9238,2239.35,0.6581533
2856,13.9531,2250.28,0.659083
2862,13.9824,2257.34,0.65992
2868,14.0117,2248.58,0.662388
2874,14.041,2263.42,0.663317
2880,14.0703,2266.44,0.665463
2886,14.0996,2266.84,0.664147
2892,14.1289,2279.32,0.664905
2898,14.1582,2276.96,0.668467
2904,14.1875,2274.12,0.67008
2910,14.2168,2276.59,0.66659
2916,14.2461,2283.43,0.669494
2922,14.2754,2289.6,0.670291
2928,14.3047,2287.66,0.672559
2934,14.334,2297.85,0.670946
2940,14.3633,2301.11,0.6727159
2946,14.3926,2295.66,0.675269
2952,14.4219,2304.51,0.674715
2958,14.4512,2322.89,0.676553
2964,14.4805,2312.44,0.678442
2970,14.5098,2314.13,0.678756
2976,14.5391,2317.55,0.679303
2982,14.5684,2332.14,0.6813097
2988,14.5977,2333.61,0.680963
2994,14.627,2331.44,0.682136
3000,14.65625,2334.41,0.682458
3006,14.6855,2341.51,0.68411
3012,14.7148,2346.68,0.684299
3018,14.7441,2346.14,0.686585
3024,14.7734,2345.22,0.688527
3030,14.8027,2347.11,0.688967
3036,14.832,2364.72,0.687153
3042,14.8613,2370.44,0.690687
3048,14.8906,2363.35,0.691123
3054,14.9199,2358.9,0.693798
3060,14.9492,2363.54,0.691463
3066,14.9785,2382.75,0.694946
3072,15.0078,2373.85,0.696448
3078,15.0371,2390.47,0.695636
3084,15.0664,2385.05,0.697314
3090,15.0957,2376.5,0.696491
3096,15.125,2389.9,0.6986618
3102,15.1543,2404.78,0.700665
3108,15.1836,2395.82,0.700722
3114,15.2129,2401.92,0.701594
3120,15.2422,2396.5,0.701194
3126,15.2715,2417.98,0.704631
3132,15.3008,2406.33,0.704895
3138,15.3301,2428.52,0.704842
3144,15.3594,2415.66,0.707263
3150,15.3887,2425.91,0.708851
3156,15.418,2430.22,0.708354
3162,15.4473,2434.24,0.709705
3168,15.4766,2438.3,0.712109
3174,15.5059,2432.99,0.711483
3180,15.5352,2434.54,0.711812
3186,15.5645,2453.2,0.713911
3192,15.59375,2450.33,0.714487
3198,15.623,2452.57,0.716479
3204,15.6523,2453.03,0.714952
3210,15.6816,2463.93,0.7177949
3216,15.7109,2460.37,0.719994
3222,15.7402,2467.1,0.719647
3228,15.7695,2462,0.720713
3234,15.7988,2468.8,0.719916
3240,15.8281,2477.28,0.720856
3246,15.8574,2484.33,0.725409
3252,15.8867,2478.48,0.726053
3258,15.916,2484.63,0.725409
3264,15.9453,2479.08,0.725055
3270,15.9746,2500.1,0.727143
3276,16.0039,2497.05,0.729082
3282,16.0332,2499.9,0.728459
3288,16.0625,2501.66,0.730559
3294,16.0918,2506.83,0.729336
3300,16.1211,2507.81,0.733949
3306,16.1504,2521.54,0.733606
3312,16.1797,2515.69,0.736091
3318,16.209,2516.28,0.736341
3324,16.2383,2515.34,0.735143
3330,16.2676,2536.31,0.737954
3336,16.2969,2534.97,0.740018
3342,16.3262,2539.83,0.738105
3348,16.3555,2541.74,0.740286
3354,16.3848,2548.91,0.740522
3360,16.4141,2550.71,0.741624
3366,16.4434,2551.97,0.745125
3372,16.4727,2553.31,0.745236
3378,16.502,2557.05,0.74451
3384,16.53125,2554.75,0.74344
3390,16.5605,2575.28,0.747492
3396,16.5898,2564.58,0.749023
3402,16.6191,2575.81,0.747814
3408,16.6484,2579.26,0.750132
3414,16.6777,2585.31,0.7504499
3420,16.707,2573.47,0.752013
3426,16.7363,2585.62,0.753064
3432,16.7656,2585.58,0.753815
3438,16.7949,2592.67,0.75496
3444,16.8242,2605.64,0.754727
3450,16.8535,2610.61,0.756458
3456,16.8828,2593.12,0.758096
3462,16.9121,2599.46,0.758014
3468,16.9414,2606.2,0.757903
3474,16.9707,2624.36,0.761333
3480,17.0,2615.83,0.762337
3486,17.0293,2622.12,0.761068
3492,17.0586,2623.28,0.764405
3498,17.0879,2631.82,0.765281
3504,17.1172,2630.96,0.764658
3510,17.1465,2639.31,0.766661
3516,17.1758,2646.52,0.768281
3522,17.2051,2639.03,0.768059
3528,17.2344,2631.14,0.766951
3534,17.2637,2652.78,0.770692
3540,17.293,2660.38,0.772576
3546,17.3223,2644.62,0.772916
3552,17.3516,2656.38,0.771832
3558,17.3809,2666.48,0.774325
3564,17.4102,2676.78,0.773839
3570,17.4395,2673.16,0.776192
3576,17.46875,2669.31,0.776725
3582,17.498,2668.34,0.776904
3588,17.5273,2673.49,0.779246
3594,17.5566,2687.08,0.780247
3600,17.5859,2699.18,0.783094
3606,17.6152,2692.82,0.781875
3612,17.6445,2683.81,0.782282
3618,17.6738,2695.27,0.785176
3624,17.7031,2702.87,0.78612
3630,17.7324,2704.11,0.787432
3636,17.7617,2705.27,0.787761
3642,17.791,2715.03,0.787035
3648,17.8203,2723.17,0.787997
3654,17.8496,2725.2,0.790139
3660,17.8789,2726.11,0.790876
3666,17.9082,2726.04,0.7922709
3672,17.9375,2724.97,0.792117
3678,17.9668,2731.97,0.7945025
3684,17.9961,2734.8,0.796437
3690,18.0254,2733.12,0.795958
3696,18.0547,2745.13,0.796512
3702,18.084,2747.71,0.797575
3708,18.1133,2739.3,0.799112
3714,18.1426,2756.66,0.799735
3720,18.1719,2749.16,0.80109
3726,18.2012,2762.01,0.800604
3732,18.2305,2757.2,0.801984
3738,18.2598,2779.81,0.803229
3744,18.2891,2763.8,0.804158
3750,18.3184,2777.9,0.805163
3756,18.3477,2765.13,0.8044517
3762,18.377,2784.65,0.80604
3768,18.40625,2782.93,0.808239
3774,18.4355,2787.36,0.809823
3780,18.4648,2787.71,0.8087647
3786,18.4941,2796.05,0.810803
3792,18.5234,2787.71,0.8115828
3798,18.5527,2807.72,0.813711
3804,18.582,2810.8,0.815713
3810,18.6113,2801.79,0.813217
3816,18.6406,2807.97,0.81429
3822,18.6699,2826.08,0.818346
3828,18.6992,2810.92,0.818417
3834,18.7285,2822.95,0.819157
3840,18.7578,2826.61,0.820438
3846,18.7871,2826.34,0.821339
3852,18.8164,2822.94,0.820649
3858,18.8457,2836.64,0.8237493
3864,18.875,2841.47,0.8240962
3870,18.9043,2852.47,0.824797
3876,18.9336,2853.58,0.826153
3882,18.9629,2847,0.825977
3888,18.9922,2849.05,0.8296144
3894,19.0215,2849.44,0.828888
3900,19.0508,2851.16,0.828155
3906,19.0801,2865.26,0.831639
3912,19.1094,2860.75,0.831481
3918,19.1387,2876.82,0.834006
3924,19.168,2864.86,0.83333
3930,19.1973,2875.8,0.834239
3936,19.2266,2871.44,0.835726
3942,19.2559,2878.79,0.836653
3948,19.2852,2882.47,0.838212
3954,19.3145,2892.12,0.837858
3960,19.34375,2887.9,0.838083
3966,19.373,2899.72,0.842396
3972,19.4023,2903.74,0.841498
3978,19.4316,2895.72,0.841445
3984,19.4609,2911.57,0.843759
3990,19.4902,2903.87,0.843111
3996,19.5195,2910.22,0.845582
4002,19.5488,2914.4,0.846348
4008,19.5781,2918.3,0.84682
4014,19.6074,2919.58,0.847789
4020,19.6367,2913.66,0.848093
4026,19.666,2934.3,0.849999
4032,19.6953,2931.56,0.852027
4038,19.7246,2928.92,0.852299
4044,19.7539,2938.15,0.85212
4050,19.7832,2940.5,0.854663
4056,19.8125,2946.24,0.854816
4062,19.8418,2947.67,0.854094
4068,19.8711,2955.26,0.855861
4074,19.9004,2950.5,0.8579278
4080,19.9297,2960.79,0.857188
4086,19.959,2964.91,0.859548
4092,19.9883,2976.19,0.862395
4098,20.0176,2966.89,0.862252
4104,20.0469,2968.31,0.861468
4110,20.0762,2977.49,0.864208
4116,20.1055,2976.98,0.86292
4122,20.1348,2989.12,0.865288
4128,20.1641,2980.17,0.867548
4134,20.1934,2985.43,0.86817
4140,20.2227,2986.54,0.869547
4146,20.252,3001.4,0.869966
4152,20.28125,2998.07,0.869908
4158,20.3105,3000.3,0.87244
4164,20.3398,3000.52,0.872244
4170,20.3691,3008.06,0.872186
4176,20.3984,3016.59,0.875205
4182,20.4277,3023.19,0.875473
4188,20.457,3017.03,0.876449
4194,20.4863,3026.7,0.877848
4200,20.5156,3024.59,0.879439
4206,20.5449,3039.13,0.879203
4212,20.5742,3028.88,0.879521
4218,20.6035,3027.84,0.880966
4224,20.6328,3034.67,0.882908
4230,20.6621,3041.57,0.885386
4236,20.6914,3043.25,0.885143
4242,20.7207,3048.17,0.885926
4248,20.75,3049.94,0.885372
4254,20.7793,3057.84,0.887436
4260,20.8086,3065.73,0.888709
4266,20.8379,3069.07,0.88971
4272,20.8672,3063.22,0.890908
4278,20.8965,3068.78,0.889789
4284,20.9258,3069.59,0.893412
4290,20.9551,3071.15,0.894138
4296,20.9844,3085.51,0.896237
4302,21.0137,3080.48,0.8946991
4308,21.043,3079.4,0.895836
4314,21.0723,3094.31,0.8968091
4320,21.1016,3091.02,0.898665
4326,21.1309,3094.41,0.899395
4332,21.1602,3103.51,0.900428
4338,21.1895,3105.5,0.900425
4344,21.21875,3107.73,0.902159
4350,21.248,3112.3,0.903096
4356,21.2773,3115.91,0.90487
4362,21.3066,3114.12,0.904251
4368,21.3359,3113.97,0.904734
4374,21.3652,3119.03,0.906626
4380,21.3945,3121.63,0.908693
4386,21.4238,3124.35,0.907695
4392,21.4531,3128.4,0.908257
4398,21.4824,3132.7,0.909712
4404,21.5117,3134.7,0.91086
4410,21.541,3151.74,0.9126699
4416,21.5703,3135.35,0.91596
4422,21.5996,3140.71,0.913285
4428,21.6289,3151.33,0.915592
4434,21.6582,3151.91,0.918024
4440,21.6875,3146.91,0.918496
4446,21.7168,3158.92,0.9175837
4452,21.7461,3160.09,0.918342
4458,21.7754,3176.38,0.920058
4464,21.8047,3171.12,0.921443
4470,21.834,3187.62,0.922762
4476,21.8633,3168.58,0.925924
4482,21.8926,3178.34,0.923724
4488,21.9219,3179.84,0.925083
4494,21.9512,3193.55,0.925838
4500,21.9805,3189.34,0.928774
4506,22.0098,3188.19,0.927604
4512,22.0391,3196.56,0.927891
4518,22.0684,3209.95,0.93034
4524,22.0977,3216.31,0.932972
4530,22.127,3206.65,0.930998
4536,22.15625,3204.48,0.933298
4542,22.1855,3212.93,0.934671
4548,22.2148,3208.98,0.934736
4554,22.2441,3221.66,0.936431
4560,22.2734,3231.37,0.937947
4566,22.3027,3228.34,0.938551
4572,22.332,3219.27,0.938262
4578,22.3613,3240.33,0.940737
4584,22.3906,3242.74,0.940247
4590,22.4199,3240.63,0.941398
4596,22.4492,3228.08,0.943036
4602,22.4785,3245.96,0.943143
4608,22.5078,3239.61,0.945032
4614,22.5371,3255.04,0.946029
4620,22.5664,3259.56,0.945393
4626,22.5957,3260.94,0.9487617
4632,22.625,3251.97,0.947989
4638,22.6543,3285.09,0.951397
4644,22.6836,3259.51,0.95173
4650,22.7129,3278.29,0.951029
4656,22.7422,3264.29,0.952942
4662,22.7715,3290.54,0.953904
4668,22.8008,3280.38,0.954748
4674,22.8301,3284.51,0.956522
4680,22.8594,3282.75,0.956115
4686,22.8887,3290.76,0.958875
4692,22.918,3288.3,0.958092
4698,22.9473,3294.73,0.960621
4704,22.9766,3302,0.959594
4710,23.0059,3298.18,0.96101
4716,23.0352,3302.84,0.961418
4722,23.0645,3319.59,0.964029
4728,23.09375,3317.05,0.965323
4734,23.123,3323,0.966525
4740,23.1523,3325.32,0.967441
4746,23.1816,3323.23,0.967666
4752,23.2109,3325.5,0.969279
4758,23.2402,3335.16,0.968338
4764,23.2695,3330.83,0.969962
4770,23.2988,3331.67,0.971035
4776,23.3281,3338,0.972744
4782,23.3574,3349.72,0.973588
4788,23.3867,3349.79,0.975666
4794,23.416,3347.53,0.974722
4800,23.4453,3343.58,0.97445
4806,23.4746,3355.3,0.976446
4812,23.5039,3358.03,0.97921
4818,23.5332,3365.02,0.978749
4824,23.5625,3354.23,0.979983
4830,23.5918,3374.88,0.980383
4836,23.6211,3365.58,0.98156
4842,23.6504,3376.83,0.984421
4848,23.6797,3375.85,0.984213
4854,23.709,3385.38,0.985043
4860,23.7383,3377.54,0.983795
4866,23.7676,3394.67,0.987711
4872,23.7969,3390.42,0.988973
4878,23.8262,3393.49,0.988022
4884,23.8555,3398.57,0.988719
4890,23.8848,3408.66,0.990676
4896,23.9141,3398.88,0.992146
4902,23.9434,3419.97,0.993522
4908,23.9727,3407.23,0.994806
4914,24.002,3412.39,0.993741
4920,24.03125,3401.42,0.993859
4926,24.0605,3417.67,0.9983933
4932,24.0898,3431.2,0.998497
4938,24.1191,3430.01,0.999076
4944,24.1484,3433.67,0.998286
4950,24.1777,3438.21,1.00045
4956,24.207,3434.41,1.00218
4962,24.2363,3444.96,1.0025
4968,24.2656,3449.27,1.00385
4974,24.2949,3438.81,1.00385
4980,24.3242,3432.1,1.00431
4986,24.3535,3463.06,1.00948
4992,24.3828,3444.08,1.00875
4998,24.4121,3453.14,1.00971
5004,24.4414,3460.21,1.00829
5010,24.4707,3469.53,1.011436
5016,24.5,3469.54,1.01225
5022,24.5293,3470.52,1.01164
5028,24.5586,3471.95,1.01292
5034,24.5879,3482.18,1.0154
5040,24.6172,3480.46,1.01395
5046,24.6465,3488.38,1.01671
5052,24.6758,3492.52,1.019032
5058,24.7051,3487.92,1.01682
5064,24.7344,3485.24,1.0195
5070,24.7637,3502.25,1.02184
5076,24.793,3507.62,1.022619
5082,24.8223,3500.91,1.022805
5088,24.8516,3491.1,1.02142
5094,24.8809,3513.15,1.02341
5100,24.9102,3503.65,1.02623
5106,24.9395,3527.47,1.02597
5112,24.96875,3510.68,1.02683
5118,24.998,3519.02,1.027
5124,25.0273,3517.43,1.02927
5130,25.0566,3538.19,1.03131
5136,25.0859,3529.47,1.03372
5142,25.1152,3531.85,1.03425
5148,25.1445,3537.15,1.03236
5154,25.1738,3531.29,1.03423
5160,25.2031,3542.38,1.03569
5166,25.2324,3547.92,1.03573
5172,25.2617,3543.3,1.03775
5178,25.291,3548.76,1.0381
5184,25.3203,3561.76,1.03908
5190,25.3496,3569.93,1.04125
5196,25.3789,3568.35,1.04233
5202,25.4082,3567.27,1.04136
5208,25.4375,3567.49,1.04088
5214,25.4668,3586.24,1.0438
5220,25.4961,3576.37,1.04534
5226,25.5254,3576.94,1.04612
5232,25.5547,3571.32,1.04581
5238,25.584,3587.79,1.04679
5244,25.6133,3576.95,1.04875
5250,25.6426,3595.73,1.04956
5256,25.6719,3598.82,1.05051
5262,25.7012,3593.97,1.05167
5268,25.7305,3604.19,1.0508
5274,25.7598,3613.45,1.05393
5280,25.7891,3605.5,1.05464
5286,25.8184,3602.06,1.05475
5292,25.8477,3605.15,1.0555
5298,25.877,3619.27,1.05718
5304,25.90625,3618.69,1.05978
5310,25.9355,3627.72,1.05892
5316,25.9648,3624.91,1.06169
5322,25.9941,3627.78,1.06311
5328,26.0234,3621.29,1.06196
5334,26.0527,3636.55,1.06402
5340,26.082,3632.2,1.06592
5346,26.1113,3642.98,1.06541
5352,26.1406,3642.6,1.06639
5358,26.1699,3652.55,1.06758
5364,26.1992,3650.89,1.06918
5370,26.2285,3644.66,1.06951
5376,26.2578,3653.04,1.06876
5382,26.2871,3671.75,1.070416
5388,26.3164,3665.05,1.07275
5394,26.3457,3667.52,1.07479
5400,26.375,3662.22,1.0742
5406,26.4043,3677.57,1.07498
5412,26.4336,3678.33,1.07454
5418,26.4629,3677.43,1.076324
5424,26.4922,3690.22,1.077472
5430,26.5215,3681.25,1.07778
5436,26.5508,3689.34,1.080544
5442,26.5801,3692.27,1.08089
5448,26.6094,3698.4,1.08158
5454,26.6387,3698.36,1.08342
5460,26.668,3702.13,1.08353
5466,26.6973,3708.3,1.08485
5472,26.7266,3704.13,1.08491
5478,26.7559,3713.1,1.08745
5484,26.7852,3719.65,1.08766
5490,26.8145,3714.82,1.09054
5496,26.84375,3724.54,1.08855
5502,26.873,3723.46,1.09053
5508,26.9023,3734.96,1.09247
5514,26.9316,3734.99,1.09269
5520,26.9609,3727.55,1.09398
5526,26.9902,3739.66,1.0944
5532,27.0195,3738.74,1.09491
5538,27.0488,3747.41,1.09717
5544,27.0781,3743.14,1.0972
5550,27.1074,3760.47,1.09814
5556,27.1367,3756.97,1.09724
5562,27.166,3764.82,1.10147
5568,27.1953,3767.01,1.10248
5574,27.2246,3768.14,1.10137
5580,27.2539,3762.52,1.104362
5586,27.2832,3774.26,1.10282
5592,27.3125,3780,1.10454
5598,27.3418,3776.72,1.10662
5604,27.3711,3784.15,1.10854
5610,27.4004,3776.59,1.10684
5616,27.4297,3775.2,1.10841
5622,27.459,3796.1,1.11267
5628,27.4883,3792.68,1.11151
5634,27.5176,3797.37,1.11278
5640,27.5469,3787.69,1.1109
5646,27.5762,3803.3,1.11372
5652,27.6055,3800.55,1.1155
5658,27.6348,3809.37,1.11673
5664,27.6641,3805.73,1.1179
5670,27.6934,3816.84,1.11829
5676,27.7227,3815.15,1.11789
5682,27.752,3822.76,1.1198
5688,27.78125,3820.81,1.12142
5694,27.8105,3830.11,1.12168
5700,27.8398,3825.86,1.12195
5706,27.8691,3831.13,1.12352
5712,27.8984,3826.32,1.12634
5718,27.9277,3834.52,1.12693
5724,27.957,3839.09,1.12569
5730,27.9863,3842.91,1.128391
5736,28.0156,3841.26,1.12827
5742,28.0449,3857.08,1.12932
5748,28.0742,3860.12,1.1308
5754,28.1035,3856.34,1.1325
5760,28.1328,3847.37,1.13329
5766,28.1621,3852.29,1.133548
5772,28.1914,3865.42,1.13517
5778,28.2207,3863.8,1.13413
5784,28.25,3870.16,1.13573
5790,28.2793,3877.92,1.1386
5796,28.3086,3869.41,1.139034
5802,28.3379,3883.03,1.13992
5808,28.3672,3877.87,1.1414
5814,28.3965,3888.48,1.14169
5820,28.4258,3889.22,1.14066
5826,28.4551,3902.61,1.14289
5832,28.4844,3904.2,1.14572
5838,28.5137,3898.2,1.14514
5844,28.543,3887.77,1.1437
5850,28.5723,3910.3,1.14581
5856,28.6016,3906.93,1.14986
5862,28.6309,3916.73,1.14706
5868,28.6602,3911.02,1.15122
5874,28.6895,3912.93,1.1511
5880,28.71875,3915.97,1.15125
5886,28.748,3921.35,1.15248
5892,28.7773,3918.54,1.15473
5898,28.8066,3935.48,1.15611
5904,28.8359,3922.32,1.156733
5910,28.8652,3936.05,1.15575
5916,28.8945,3932.3,1.15957
5922,28.9238,3945.44,1.15831
5928,28.9531,3941.63,1.15974
5934,28.9824,3943.21,1.16097
5940,29.0117,3944.42,1.16165
5946,29.041,3962.61,1.16355
5952,29.0703,3961.35,1.16423
5958,29.0996,3955.28,1.16361
5964,29.1289,3957.37,1.16517
5970,29.1582,3969.41,1.166
5976,29.1875,3973.01,1.1694
5982,29.2168,3971.47,1.16923
5988,29.2461,3973.78,1.16928
5994,29.2754,3966.18,1.17093
6000,29.3047,3972.52,1.17186
6006,29.334,3990.6,1.17368
6012,29.3633,3989.54,1.173656
6018,29.3926,3991.21,1.17373
6024,29.4219,3987.72,1.1758
6030,29.4512,3998.2,1.17587
6036,29.4805,3995.55,1.178416
6042,29.5098,3996.03,1.17983
6048,29.5391,3987.51,1.17884
6054,29.5684,4008.42,1.18084
6060,29.5977,4001.84,1.18223
6066,29.627,4017.54,1.183573
6072,29.65625,4010.21,1.18336
6078,29.6855,4020.77,1.183902
6084,29.7148,4014.43,1.18542
6090,29.7441,4033.48,1.18617
6096,29.7734,4019.27,1.18864
6102,29.8027,4024.83,1.18727
6108,29.832,4024.87,1.18825
6114,29.8613,4034.64,1.19067
6120,29.8906,4042.78,1.19205
6126,29.9199,4034.3,1.19208
6132,29.9492,4037.64,1.19314
6138,29.9785,4055.4,1.193
6144,30.0078,4042.81,1.19556
6150,30.0371,4056.07,1.1969
6156,30.0664,4059.62,1.19891
6162,30.0957,4062.36,1.19904
6168,30.125,4062.51,1.19753
6174,30.1543,4075.3,1.20074
6180,30.1836,4069.52,1.20163
6186,30.2129,4066.8,1.20207
6192,30.2422,4078.03,1.20271
6198,30.2715,4077.62,1.20424
6204,30.3008,4074.98,1.20576
6210,30.3301,4091.1,1.20559
6216,30.3594,4087.58,1.20819
6222,30.3887,4087.33,1.20874
6228,30.418,4089.12,1.2076
6234,30.4473,4106.25,1.21039
6240,30.4766,4097.56,1.21037
6246,30.5059,4098.58,1.21289
6252,30.5352,4102.72,1.2116
6258,30.5645,4119.48,1.21421
6264,30.59375,4114.09,1.21533
6270,30.623,4110.63,1.2159
6276,30.6523,4116.99,1.21661
6282,30.6816,4121.13,1.21686
6288,30.7109,4130.13,1.21901
6294,30.7402,4127.98,1.21977
6300,30.7695,4132.97,1.22164
6306,30.7988,4124.19,1.22176
6312,30.8281,4120.98,1.22185
6318,30.8574,4144.61,1.22422
6324,30.8867,4144.24,1.22569
6330,30.916,4147.81,1.22517
6336,30.9453,4136.46,1.224407
6342,30.9746,4154.15,1.22758
6348,31.0039,4157.9,1.22799
6354,31.0332,4151.58,1.22967
6360,31.0625,4149.64,1.22968
6366,31.0918,4161.92,1.23012
6372,31.1211,4155.48,1.23195
6378,31.1504,4172.95,1.23354
6384,31.1797,4165.58,1.23273
6390,31.209,4181.87,1.23577
6396,31.2383,4169.19,1.23574
6402,31.2676,4185.18,1.23665
6408,31.2969,4174.69,1.239531
6414,31.3262,4180.39,1.23953
6420,31.3555,4180.44,1.240443
6426,31.3848,4191,1.23973
6432,31.4141,4187.47,1.24186
6438,31.4434,4199.94,1.24379
6444,31.4727,4200.56,1.24555
6450,31.502,4205.05,1.2448
6456,31.53125,4204.75,1.24529
6462,31.5605,4213.26,1.24753
6468,31.5898,4212.81,1.24954
6474,31.6191,4209.97,1.24737
6480,31.6484,4210.44,1.24902
6486,31.6777,4225.89,1.2502
6492,31.707,4223.68,1.25273
6498,31.7363,4233.95,1.25231
6504,31.7656,4227.9,1.25309
6510,31.7949,4240.04,1.25397
6516,31.8242,4222.47,1.25488
6522,31.8535,4238.77,1.25656
6528,31.8828,4233.41,1.25868
6534,31.9121,4245.72,1.2587
6540,31.9414,4239.86,1.25918
6546,31.9707,4248.64,1.26103
6552,32.0,4243.24,1.26108
6558,32.0293,4261.1,1.26233
6564,32.0586,4259.84,1.26366
6570,32.0879,4260.63,1.26459
6576,32.1172,4258.94,1.26478
6582,32.1465,4270.2,1.26615
6588,32.1758,4284.51,1.26908
6594,32.2051,4280.94,1.26715
6600,32.2344,4269,1.26918
6606,32.2637,4276.88,1.27035
6612,32.293,4285.8,1.27317
6618,32.3223,4278.86,1.27265
6624,32.3516,4285.78,1.27341
6630,32.3809,4292.86,1.27403
6636,32.4102,4292.75,1.27565
6642,32.4395,4289.11,1.276989
6648,32.46875,4295.52,1.27815
6654,32.498,4298.63,1.2771
6660,32.5273,4299.01,1.27892
6666,32.5566,4314.56,1.28031
6672,32.5859,4306.93,1.28171
6678,32.6152,4312.41,1.2824
6684,32.6445,4312.68,1.28155
6690,32.6738,4326.8,1.2829
6696,32.7031,4323.8,1.28608
6702,32.7324,4324.98,1.28711
6708,32.7617,4330.04,1.28719
6714,32.791,4334.59,1.28825
6720,32.8203,4330.59,1.2893
6726,32.8496,4339.83,1.29172
6732,32.8789,4336.76,1.29029
6738,32.9082,4338.88,1.294241
6744,32.9375,4343.84,1.29112
6750,32.9668,4350.59,1.29413
6756,32.9961,4346.51,1.2948
6762,33.0254,4360.83,1.29816
6768,33.0547,4364.96,1.29541
6774,33.084,4351.44,1.29717
6780,33.1133,4366.78,1.29731
6786,33.1426,4371.8,1.29988
6792,33.1719,4367.66,1.30192
6798,33.2012,4370.44,1.302402
6804,33.2305,4376.6,1.30091
6810,33.2598,4376.57,1.304816
6816,33.2891,4389.52,1.30717
6822,33.3184,4373.36,1.30643
6828,33.3477,4384.28,1.306833
6834,33.377,4393.57,1.30819
6840,33.40625,4391.31,1.30882
6846,33.4355,4400.32,1.30971
6852,33.4648,4402.57,1.31085
6858,33.4941,4399.89,1.31259
6864,33.5234,4396.94,1.31209
6870,33.5527,4410.05,1.31435
6876,33.582,4414.03,1.31532
6882,33.6113,4408.73,1.3156
6888,33.6406,4405.24,1.31611
6894,33.6699,4421.56,1.31803
6900,33.6992,4421.14,1.31974
6906,33.7285,4432.24,1.31944
6912,33.7578,4425.14,1.32181
6918,33.7871,4437.78,1.32081
6924,33.8164,4434.06,1.32157
6930,33.8457,4445.67,1.32293
6936,33.875,4443.66,1.32511
6942,33.9043,4446.39,1.32535
6948,33.9336,4435.34,1.32638
6954,33.9629,4448.23,1.32786
6960,33.9922,4438.7,1.32821
6966,34.0215,4458.86,1.3292
6972,34.0508,4460.58,1.32951
6978,34.0801,4454.6,1.32989
6984,34.1094,4460.35,1.33165
6990,34.1387,4468.95,1.33413
6996,34.168,4455.8,1.33375
7002,34.1973,4465.88,1.33598
7008,34.2266,4459.04,1.33604
7014,34.2559,4475.9,1.33778
7020,34.2852,4474.75,1.339184
7026,34.3145,4479.05,1.339699
7032,34.34375,4484.66,1.33896
7038,34.373,4499.74,1.34137
7044,34.4023,4476,1.34237
7050,34.4316,4495.11,1.34255
7056,34.4609,4490.18,1.34492
7062,34.4902,4501.08,1.34426
7068,34.5195,4501.13,1.34544
7074,34.5488,4514.04,1.3465
7080,34.5781,4505.86,1.34905
7086,34.6074,4502.36,1.34844
7092,34.6367,4501.52,1.34812
7098,34.666,4516.87,1.35068
7104,34.6953,4522.26,1.35272
7110,34.7246,4515.62,1.35291
7116,34.7539,4525.13,1.353575
7122,34.7832,4529.93,1.35394
7128,34.8125,4538.92,1.35639
7134,34.8418,4538.93,1.35701
7140,34.8711,4544.18,1.358428
7146,34.9004,4530.7,1.357913
7152,34.9297,4534.85,1.3601
7158,34.959,4537.61,1.36032
7164,34.9883,4544.12,1.36119
7170,35.0176,4551.59,1.36181
7176,35.0469,4554.39,1.36338
7182,35.0762,4560.76,1.36412
7188,35.1055,4554.03,1.36381
7194,35.1348,4544.77,1.36534
7200,35.1641,4564.56,1.36814
7206,35.1934,4565.75,1.36702
7212,35.2227,4562.8,1.36765
7218,35.252,4577.5,1.37079
7224,35.28125,4581.26,1.37196
7230,35.3105,4574.56,1.37092
7236,35.3398,4572.71,1.37326
7242,35.3691,4586.73,1.37387
7248,35.3984,4582.68,1.37457
7254,35.4277,4592.93,1.37574
7260,35.457,4596.23,1.37708
7266,35.4863,4595.32,1.37711
7272,35.5156,4601.93,1.3791
7278,35.5449,4608.78,1.38039
7284,35.5742,4595.51,1.38233
7290,35.6035,4602.66,1.38112
7296,35.6328,4601.14,1.38224
7302,35.6621,4616.99,1.3845
7308,35.6914,4609.01,1.38545
7314,35.7207,4619.08,1.38458
7320,35.75,4623.62,1.38721
7326,35.7793,4620.58,1.38595
7332,35.8086,4631.6,1.38924
7338,35.8379,4629.43,1.39027
7344,35.8672,4638.27,1.39225
7350,35.8965,4639.56,1.3928
7356,35.9258,4624.43,1.3905
7362,35.9551,4646.44,1.39209
7368,35.9844,4645.75,1.39468
7374,36.0137,4635.84,1.39565
7380,36.043,4639.4,1.39615
7386,36.0723,4656.68,1.39907
7392,36.1016,4654.11,1.39691
7398,36.1309,4654.33,1.39821
7404,36.1602,4649.88,1.39982
7410,36.1895,4670.15,1.40148
7416,36.21875,4659.69,1.40112
7422,36.248,4674.17,1.40491
7428,36.2773,4667.99,1.40533
7434,36.3066,4671.82,1.40465
7440,36.3359,4672.26,1.40516
7446,36.3652,4677.78,1.40672
7452,36.3945,4678.53,1.40849
7458,36.4238,4688.75,1.4097
7464,36.4531,4684.14,1.4097
7470,36.4824,4691.93,1.41028
7476,36.5117,4692.76,1.41114
7482,36.541,4700.7,1.41311
7488,36.5703,4704.27,1.41395
7494,36.5996,4697.52,1.41531
7500,36.6289,4709.19,1.41477
7506,36.6582,4711.43,1.41743
7512,36.6875,4712,1.41851
7518,36.7168,4706.54,1.41901
7524,36.7461,4714.41,1.41885
7530,36.7754,4715.78,1.42041
7536,36.8047,4720.5,1.42148
7542,36.834,4726.17,1.42223
7548,36.8633,4726.36,1.4243
7554,36.8926,4726.73,1.42533
7560,36.9219,4720.17,1.42351
7566,36.9512,4736.2,1.42634
7572,36.9805,4741.43,1.42768
7578,37.0098,4740.44,1.4295
7584,37.0391,4739.14,1.42969
7590,37.0684,4764.58,1.43055
7596,37.0977,4739.77,1.43181
7602,37.127,4745.52,1.43084
7608,37.15625,4749.07,1.43319
7614,37.1855,4757.47,1.43453
7620,37.2148,4760.27,1.43452
7626,37.2441,4766.93,1.43604
7632,37.2734,4764.37,1.43824
7638,37.3027,4765.66,1.43935
7644,37.332,4753.24,1.438365
7650,37.3613,4768.87,1.4404
7656,37.3906,4779.05,1.44218
7662,37.4199,4780.49,1.44289
7668,37.4492,4779.92,1.44471
7674,37.4785,4788.24,1.44262
7680,37.5078,4786.9,1.44338
7686,37.5371,4789.26,1.44512
7692,37.5664,4788.23,1.44666
7698,37.5957,4800.67,1.44894
7704,37.625,4793.69,1.44739
7710,37.6543,4813.34,1.45062
7716,37.6836,4800.58,1.45126
7722,37.7129,4813.33,1.4505
7728,37.7422,4814.04,1.45239
7734,37.7715,4806.53,1.45445
7740,37.8008,4812.22,1.45506
7746,37.8301,4826.36,1.45641
7752,37.8594,4824.53,1.45756
7758,37.8887,4824.67,1.45682
7764,37.918,4816.18,1.457423
7770,37.9473,4829.35,1.4621
7776,37.9766,4834.73,1.46268
7782,38.0059,4834.37,1.46194
7788,38.0352,4840.91,1.46193
7794,38.0645,4853.91,1.4635
7800,38.09375,4835.93,1.46573
7806,38.123,4848.24,1.46623
7812,38.1523,4850.88,1.46553
7818,38.1816,4858.37,1.46708
7824,38.2109,4836.23,1.46933
7830,38.2402,4862.97,1.4701
7836,38.2695,4865.75,1.47125
7842,38.2988,4864.85,1.472193
7848,38.3281,4851.88,1.47192
7854,38.3574,4861.77,1.47299
7860,38.3867,4882.45,1.47536
7866,38.416,4876.82,1.47678
7872,38.4453,4881.37,1.47628
7878,38.4746,4873.23,1.47803
7884,38.5039,4869.9,1.47761
7890,38.5332,4887.68,1.47982
7896,38.5625,4884.92,1.48067
7902,38.5918,4894.14,1.48112
7908,38.6211,4897.3,1.48011
7914,38.6504,4903.9,1.48332
7920,38.6797,4911.68,1.48533
7926,38.709,4911.04,1.48602
7932,38.7383,4895.3,1.48481
7938,38.7676,4912.26,1.48691
7944,38.7969,4912,1.48889
7950,38.8262,4909.94,1.48912
7956,38.8555,4921.46,1.49167
7962,38.8848,4910.13,1.49169
7968,38.9141,4922.52,1.492449
7974,38.9434,4932.61,1.49307
7980,38.9727,4929.14,1.49497
7986,39.002,4930.85,1.49591
7992,39.03125,4919.98,1.49479
7998,39.0605,4946.06,1.49732
8004,39.0898,4934.26,1.49867
8010,39.1191,4946.27,1.49864
8016,39.1484,4950.26,1.50055
8022,39.1777,4954.81,1.49971
8028,39.207,4958.1,1.50275
8034,39.2363,4959.79,1.50331
8040,39.2656,4956.09,1.50407
8046,39.2949,4965.83,1.50421
8052,39.3242,4961.72,1.50506
8058,39.3535,4967.91,1.505996
8064,39.3828,4974.18,1.508882
8070,39.4121,4971.78,1.5088
8076,39.4414,4972.21,1.50905
8082,39.4707,4986.83,1.51022
8088,39.5,4982.97,1.51203
8094,39.5293,4978.94,1.51227
8100,39.5586,4980.58,1.51445
8106,39.5879,4990.2,1.51495
8112,39.6172,4982.28,1.51286
8118,39.6465,5000.95,1.51626
8124,39.6758,4993.8,1.51816
8130,39.7051,5001.78,1.52006
8136,39.7344,4991.32,1.51818
8142,39.7637,1674.7,1.54223