File: ASM109_2021_data/MTS/90/MTS_90_8.csv
,Time [s],Load [N],Displacement [mm]
0,0.00683594,-430.079,0.000926256
9,0.05078125,-426.668,0.000818968
18,0.0947266,-409.8,0.000607967
27,0.138672,-413.836,0.0023675
36,0.182617,-404.164,0.00496745
45,0.2265625,-394.606,0.00570059
54,0.270508,-387.099,0.00798941
63,0.314453,-397.226,0.00893712
72,0.358398,-380.928,0.0125134
81,0.402344,-368.883,0.0119162
90,0.446289,-367.797,0.01266
99,0.490234,-369.492,0.0153136
108,0.53418,-356.504,0.0158107
117,0.578125,-341.693,0.0182998
126,0.62207,-334.632,0.0187933
135,0.666016,-342.576,0.0205994
144,0.709961,-331.728,0.0225413
153,0.753906,-319.424,0.0252521
162,0.797852,-319.127,0.0255883
171,0.841797,-307.195,0.0259173
180,0.885742,-321.484,0.0273085
189,0.9296875,-289.993,0.0299335
198,0.973633,-294.236,0.0305092
207,1.01758,-289.147,0.0324619
216,1.06152,-287.468,0.0348544
225,1.10547,-272.508,0.0351191
234,1.14941,-261.725,0.0367427
243,1.19336,-263.002,0.0389206
252,1.2373,-260.568,0.03905654
261,1.28125,-242.246,0.04147768
270,1.3252,-245.236,0.0421035
279,1.36914,-244.365,0.0447392
288,1.41309,-232.192,0.0453365
297,1.45703,-224.502,0.0484049
306,1.50098,-212.06,0.0487161
315,1.54492,-219.642,0.0507796
324,1.58887,-220.037,0.0528216
333,1.63281,-206.481,0.0515807
342,1.67676,-204.489,0.0556791
351,1.7207,-192.81,0.05592227
360,1.76465,-193.398,0.05797863
369,1.80859,-180.04,0.0589335
378,1.85254,-178.752,0.0601566
387,1.89648,-172.152,0.0619483
396,1.94043,-158.533,0.0628388
405,1.984375,-151.884,0.0650167
414,2.02832,-152.961,0.0663328
423,2.07227,-144.857,0.0687933
432,2.11621,-137.122,0.0676632
441,2.16016,-138.728,0.07094264
450,2.2041,-136.005,0.0714862
459,2.24805,-118.477,0.0737965
468,2.29199,-123.083,0.0745189
477,2.33594,-104.909,0.0762427
486,2.37988,-102.71,0.0789285
495,2.42383,-94.1711,0.0780809
504,2.46777,-102.294,0.07994771
513,2.51172,-82.2292,0.083009
522,2.55566,-76.1573,0.0827408
531,2.59961,-80.4702,0.0853908
540,2.64355,-70.8625,0.0868213
549,2.6875,-58.5504,0.0870037
558,2.73145,-56.6649,0.0896323
567,2.77539,-46.2643,0.0917602
576,2.81934,-49.2486,0.0931692
585,2.86328,-38.4331,0.0943601
594,2.90723,-33.2585,0.0948894
603,2.95117,-32.6678,0.0962019
612,2.99512,-21.4594,0.0978684
621,3.03906,-8.9579,0.100014
630,3.08301,-7.4103,0.101048
639,3.12695,-5.76076,0.1027894
648,3.1709,2.72502,0.104882
657,3.21484,7.46679,0.106752
666,3.25879,7.22237,0.107936
675,3.30273,19.9142,0.108401
684,3.34668,22.4439,0.110171
693,3.390625,38.0777,0.111505
702,3.43457,34.3266,0.113397
711,3.47852,47.854,0.114641
720,3.52246,47.0812,0.114319
729,3.56641,59.7499,0.117574
738,3.61035,61.5472,0.118343
747,3.6543,62.8905,0.120639
756,3.69824,65.8265,0.123725
765,3.74219,87.5885,0.123135
774,3.78613,84.0246,0.125527
783,3.83008,92.846,0.125985
792,3.87402,94.2916,0.128267
801,3.91797,99.6802,0.129454
810,3.96191,104.088,0.131561
819,4.00586,112.242,0.132751
828,4.0498,115.767,0.134053
837,4.09375,136.601,0.135459
846,4.1377,128.055,0.137433
855,4.18164,142.61,0.1386416
864,4.22559,146.822,0.13901
873,4.26953,157.75,0.140387
882,4.31348,157.817,0.141739
891,4.35742,159.996,0.143477
900,4.40137,151.274,0.145562
909,4.44531,171.098,0.14711
918,4.48926,186.325,0.147897
927,4.5332,185.88,0.149227
936,4.57715,189.051,0.151173
945,4.62109,200.439,0.153168
954,4.66504,214.35,0.155107
963,4.70898,210.199,0.155329
972,4.75293,224.129,0.157857
981,4.796875,225.046,0.157256
990,4.84082,229.135,0.158329
999,4.88477,228.7,0.161798
1008,4.92871,239.556,0.163597
1017,4.97266,256.5,0.164462
1026,5.0166,234.925,0.166347
1035,5.06055,259.743,0.166168
1044,5.10449,257.126,0.169179
1053,5.14844,269.952,0.169927
1062,5.19238,283.332,0.171175
1071,5.23633,283.347,0.173289
1080,5.28027,270.093,0.173661
1089,5.32422,298.93,0.175209
1098,5.36816,289.846,0.1765
1107,5.41211,287.88,0.179011
1116,5.45605,313.802,0.181435
1125,5.5,316.886,0.181603
1134,5.54395,327.193,0.183191
1143,5.58789,322.879,0.1842463
1152,5.63184,322.108,0.186095
1161,5.67578,335.166,0.188828
1170,5.71973,333.27,0.189521
1179,5.76367,352.514,0.19181
1188,5.80762,363.29,0.192726
1197,5.85156,367.027,0.194982
1206,5.89551,360.829,0.193695
1215,5.93945,361.716,0.194975
1224,5.9834,367.35,0.1981473
1233,6.02734,393.779,0.200286
1242,6.07129,389.898,0.200347
1251,6.11523,392.614,0.201681
1260,6.15918,404.327,0.205189
1269,6.203125,412.244,0.205858
1278,6.24707,413.921,0.206963
1287,6.29102,416.45,0.209488
1296,6.33496,424.927,0.209198
1305,6.37891,427.597,0.211837
1314,6.42285,428.682,0.211548
1323,6.4668,429.412,0.214537
1332,6.51074,451.981,0.21614
1341,6.55469,456.162,0.218103
1350,6.59863,451.695,0.218486
1359,6.64258,476.26,0.219301
1368,6.68652,461.102,0.221454
1377,6.73047,485.675,0.223099
1386,6.77441,479.805,0.224072
1395,6.81836,480.641,0.225838
1404,6.8623,487.951,0.228109
1413,6.90625,504.741,0.227587
1422,6.9502,513.211,0.230316
1431,6.99414,510.215,0.230412
1440,7.03809,506.328,0.233227
1449,7.08203,520.247,0.233699
1458,7.12598,534.204,0.236692
1467,7.16992,535.604,0.238613
1476,7.21387,531.848,0.238681
1485,7.25781,542.324,0.241367
1494,7.30176,558.04,0.242282
1503,7.3457,558.365,0.244864
1512,7.38965,571.853,0.24549
1521,7.43359,568.395,0.246109
1530,7.47754,588.056,0.248133
1539,7.52148,570.295,0.249707
1548,7.56543,583.773,0.251334
1557,7.609375,590.242,0.252017
1566,7.65332,591.439,0.253565
1575,7.69727,585.242,0.254753
1584,7.74121,599.265,0.2566123
1593,7.78516,621.375,0.257961
1602,7.8291,626.821,0.258079
1611,7.87305,624.186,0.261115
1620,7.91699,623.822,0.263211
1629,7.96094,638.83,0.263332
1638,8.00488,646.817,0.265507
1647,8.04883,647.437,0.266325
1656,8.09277,647.372,0.268679
1665,8.13672,656.89,0.267713
1674,8.18066,654.092,0.271497
1683,8.22461,662.025,0.27307
1692,8.26855,679.538,0.274955
1701,8.3125,682.391,0.273961
1710,8.35645,680.431,0.27675
1719,8.40039,686.141,0.277251
1728,8.44434,693.514,0.279611
1737,8.48828,708.385,0.281807
1746,8.53223,709.375,0.282151
1755,8.57617,711.497,0.284178
1764,8.62012,717.754,0.286585
1773,8.66406,727.586,0.288112
1782,8.70801,733.944,0.288988
1791,8.75195,738.518,0.290058
1800,8.7959,744.466,0.292007
1809,8.83984,765.024,0.292633
1818,8.88379,753.873,0.293816
1827,8.92773,751.437,0.296398
1836,8.97168,766.424,0.296981
1845,9.015625,778.146,0.298791
1854,9.05957,779.131,0.3001
1863,9.10352,776.726,0.302482
1872,9.14746,793.293,0.3041482
1881,9.19141,801.762,0.3043592
1890,9.23535,798.16,0.305468
1899,9.2793,794.004,0.308182
1908,9.32324,808.595,0.308819
1917,9.36719,822.231,0.310378
1926,9.41113,818.006,0.312116
1935,9.45508,822.298,0.314877
1944,9.49902,821.831,0.315439
1953,9.54297,853.69,0.317345
1962,9.58691,845.809,0.318754
1971,9.63086,849.997,0.317842
1980,9.6748,862.194,0.321618
1989,9.71875,870.453,0.322952
1998,9.7627,878.208,0.324708
2007,9.80664,868.842,0.324794
2016,9.85059,877.806,0.3262
2025,9.89453,885.639,0.329508
2034,9.93848,894.154,0.32709
2043,9.98242,895.013,0.3310132
2052,10.0264,902.119,0.332544
2061,10.0703,904.596,0.3335917
2070,10.1143,916.887,0.334625
2079,10.1582,916.526,0.336424
2088,10.2021,933.146,0.338409
2097,10.2461,935.668,0.339829
2106,10.29,947.868,0.341778
2115,10.334,936.65,0.343237
2124,10.3779,944.6,0.34549
2133,10.4219,963.614,0.346634
2142,10.4658,963.111,0.347171
2151,10.5098,967.639,0.348755
2160,10.5537,972.425,0.349796
2169,10.5977,977.106,0.3512764
2178,10.6416,994.52,0.353304
2187,10.6855,999.163,0.354184
2196,10.7295,998.199,0.356487
2205,10.7734,1009.44,0.3571558
2214,10.8174,1000.69,0.359888
2223,10.8613,1006.05,0.361944
2232,10.9053,1018.44,0.362595
2241,10.9492,1024.3,0.364426
2250,10.9932,1026.66,0.364097
2259,11.0371,1031.36,0.3674376
2268,11.0811,1042.77,0.368904
2277,11.125,1047.71,0.368679
2286,11.1689,1056.12,0.371064
2295,11.2129,1061.93,0.372806
2304,11.2568,1066.92,0.375988
2313,11.3008,1073.6,0.375227
2322,11.3447,1064.51,0.377169
2331,11.3887,1072.8,0.3786242
2340,11.4326,1087.46,0.381206
2349,11.4766,1087.52,0.382254
2358,11.5205,1098.29,0.382336
2367,11.5645,1099.18,0.384979
2376,11.6084,1104.23,0.38675
2385,11.6523,1109.73,0.386692
2394,11.6963,1105.82,0.387855
2403,11.7402,1116.18,0.390705
2412,11.7842,1122.4,0.392736
2421,11.8281,1139.64,0.393509
2430,11.8721,1142.02,0.394503
2439,11.916,1137.02,0.394746
2448,11.96,1140.09,0.397829
2457,12.0039,1154.57,0.398287
2466,12.0479,1162.19,0.4002285
2475,12.0918,1168.67,0.40177
2484,12.1357,1173.43,0.404334
2493,12.1797,1173.86,0.404781
2502,12.2236,1181.18,0.40422
2511,12.2676,1193.95,0.407935
2520,12.3115,1189.03,0.409477
2529,12.3555,1198.45,0.411222
2538,12.3994,1195.27,0.412002
2547,12.4434,1215.18,0.414405
2556,12.4873,1212.81,0.414916
2565,12.53125,1216.8,0.417334
2574,12.5752,1232.24,0.417577
2583,12.6191,1237.92,0.418882
2592,12.6631,1229.1,0.420824
2601,12.707,1252.71,0.423142
2610,12.751,1234.02,0.422881
2619,12.7949,1254.66,0.424819
2628,12.8389,1253.4,0.425001
2637,12.8828,1270.2,0.427927
2646,12.9268,1262.53,0.429465
2655,12.9707,1279.15,0.431153
2664,13.0146,1274.22,0.433052
2673,13.0586,1285.3,0.433059
2682,13.1025,1288.88,0.43534
2691,13.1465,1296.69,0.436882
2700,13.19043,1305.74,0.439528
2709,13.2344,1308.54,0.440984
2718,13.27832,1306.7,0.440891
2727,13.3223,1311.82,0.441821
2736,13.3662,1321.03,0.443619
2745,13.4102,1334.22,0.44598
2754,13.4541,1350.3,0.4473424
2763,13.498,1338.29,0.448122
2772,13.542,1335.21,0.450253
2781,13.5859,1354.21,0.452249
2790,13.6299,1357.74,0.451412
2799,13.6738,1363.52,0.455393
2808,13.7178,1362.91,0.455368
2817,13.7617,1368.29,0.457252
2826,13.8057,1390.17,0.458922
2835,13.8496,1389.26,0.462695
2844,13.8936,1383.76,0.461944
2853,13.9375,1388.79,0.463886
2862,13.9814,1396.87,0.463779
2871,14.0254,1392.15,0.4654634
2880,14.0693,1402.15,0.468256
2889,14.1133,1408.21,0.468396
2898,14.1572,1413.32,0.4700768
2907,14.2012,1416.98,0.47159
2916,14.2451,1433.02,0.473428
2925,14.2891,1445.15,0.47493
2934,14.333,1437.87,0.475878
2943,14.377,1450.05,0.477347
2952,14.4209,1443.52,0.479164
2961,14.4648,1467.39,0.480909
2970,14.5088,1453.49,0.481267
2979,14.5527,1469.01,0.485297
2988,14.59668,1467.88,0.484246
2997,14.6406,1476.21,0.486317
3006,14.68457,1486.98,0.487268
3015,14.7285,1498.64,0.488448
3024,14.7725,1494.87,0.492575
3033,14.8164,1494.07,0.491692
3042,14.8604,1508.76,0.493072
3051,14.9043,1512.04,0.494496
3060,14.9482,1515.1,0.496109
3069,14.9922,1526.21,0.496824
3078,15.0361,1527.96,0.499735
3087,15.0801,1530.37,0.501645
3096,15.124,1538.48,0.5032146
3105,15.168,1545.21,0.505664
3114,15.2119,1542.32,0.503948
3123,15.2559,1547.65,0.507617
3132,15.2998,1557.12,0.507402
3141,15.34375,1575.61,0.509248
3150,15.3877,1570.11,0.510367
3159,15.4316,1581.67,0.511765
3168,15.4756,1578.43,0.515317
3177,15.5195,1582.52,0.516336
3186,15.5635,1596.27,0.516973
3195,15.6074,1586.49,0.517302
3204,15.6514,1608.79,0.520695
3213,15.6953,1614.02,0.521303
3222,15.7393,1613.57,0.523846
3231,15.7832,1617.06,0.523328
3240,15.8271,1620.55,0.525427
3249,15.8711,1629.68,0.527941
3258,15.915,1627.71,0.529021
3267,15.959,1629.26,0.531489
3276,16.00293,1655.88,0.52969
3285,16.0469,1648.98,0.534056
3294,16.09082,1661.64,0.535845
3303,16.1348,1659.09,0.535859
3312,16.1787,1660.33,0.538298
3321,16.2227,1665.01,0.539821
3330,16.2666,1683.03,0.540322
3339,16.3105,1678.78,0.54044
3348,16.3545,1678.66,0.543451
3357,16.3984,1697.44,0.543984
3366,16.4424,1704.83,0.546741
3375,16.4863,1707.18,0.5474925
3384,16.5303,1709.15,0.548691
3393,16.5742,1718.83,0.551974
3402,16.6182,1724.44,0.5528
3411,16.6621,1720.26,0.554438
3420,16.7061,1728.2,0.554591
3429,16.75,1737.6,0.556716
3438,16.7939,1746.6,0.5576098
3447,16.8379,1740.05,0.559001
3456,16.8818,1751.23,0.563074
3465,16.9258,1752.56,0.562788
3474,16.9697,1771.61,0.563765
3483,17.0137,1763.03,0.565681
3492,17.0576,1766.27,0.567026
3501,17.1016,1781.38,0.5688715
3510,17.1455,1784.31,0.569737
3519,17.1895,1780.48,0.572916
3528,17.2334,1805.02,0.573349
3537,17.2773,1797.35,0.573857
3546,17.3213,1792.46,0.57503
3555,17.3652,1796.28,0.577065
3564,17.40918,1811.66,0.578992
3573,17.4531,1819.86,0.579811
3582,17.49707,1822.15,0.581478
3591,17.541,1825.44,0.58224
3600,17.585,1838.16,0.584743
3609,17.6289,1846.24,0.586381
3618,17.6729,1846.18,0.58754
3627,17.7168,1854.19,0.590247
3636,17.7607,1848.92,0.590966
3645,17.8047,1852.56,0.591838
3654,17.8486,1866.44,0.592675
3663,17.8926,1868.04,0.594896
3672,17.9365,1873.13,0.5955863
3681,17.9805,1886.61,0.597925
3690,18.0244,1888.36,0.598118
3699,18.0684,1891.83,0.600414
3708,18.1123,1884.64,0.602174
3717,18.15625,1907.24,0.604967
3726,18.2002,1905.48,0.604988
3735,18.2441,1911.38,0.60742
3744,18.2881,1914.59,0.607975
3753,18.332,1916.27,0.608593
3762,18.376,1934.56,0.611154
3771,18.4199,1924.34,0.612416
3780,18.4639,1932.83,0.614287
3789,18.5078,1943.79,0.614458
3798,18.5518,1959.33,0.616343
3807,18.5957,1949.65,0.618196
3816,18.6396,1961.06,0.620048
3825,18.6836,1972.76,0.622187
3834,18.7275,1972.8,0.622487
3843,18.7715,1972.14,0.624998
3852,18.81543,1987.02,0.626346
3861,18.8594,1990.29,0.627998
3870,18.90332,1985.89,0.627093
3879,18.9473,1994.69,0.6302762
3888,18.9912,1992.39,0.631177
3897,19.0352,2010.71,0.634428
3906,19.0791,2010.14,0.634593
3915,19.123,2003.75,0.633792
3924,19.167,2021.86,0.638123
3933,19.2109,2022.7,0.638777
3942,19.2549,2038.04,0.640007
3951,19.2988,2039.59,0.643262
3960,19.3428,2033.86,0.643798
3969,19.3867,2057.89,0.6460762
3978,19.4307,2055.47,0.646988
3987,19.4746,2064.34,0.647814
3996,19.5186,2062.86,0.647453
4005,19.5625,2068.09,0.650668
4014,19.6064,2073.85,0.65232
4023,19.6504,2077.4,0.655718
4032,19.6943,2071.13,0.655081
4041,19.7383,2092.45,0.6572628
4050,19.7822,2108.17,0.659037
4059,19.8262,2095.5,0.660628
4068,19.8701,2107.03,0.661283
4077,19.9141,2104.85,0.662334
4086,19.958,2119.02,0.664594
4095,20.002,2111.6,0.664794
4104,20.0459,2124.41,0.668743
4113,20.0898,2129.97,0.667162
4122,20.1338,2137.22,0.668789
4131,20.1777,2142.12,0.672534
4140,20.22168,2145.31,0.6720221
4149,20.2656,2162.6,0.674468
4158,20.30957,2161.34,0.675942
4167,20.3535,2166.7,0.677701
4176,20.3975,2159.55,0.678366
4185,20.4414,2179.4,0.679214
4194,20.4854,2178.62,0.682358
4203,20.5293,2177.49,0.681392
4212,20.5732,2190.11,0.684736
4221,20.6172,2195.42,0.684346
4230,20.6611,2190.23,0.688033
4239,20.7051,2208.63,0.689163
4248,20.749,2214.45,0.691152
4257,20.793,2212.78,0.692461
4266,20.8369,2221.37,0.691831
4275,20.8809,2214.14,0.6936264
4284,20.9248,2222.67,0.697124
4293,20.96875,2230.91,0.695536
4302,21.0127,2239.39,0.698951
4311,21.0566,2242.86,0.701226
4320,21.1006,2243.23,0.702528
4329,21.1445,2260.99,0.703504
4338,21.1885,2269.84,0.704126
4347,21.2324,2264.31,0.707005
4356,21.2764,2277.18,0.708894
4365,21.3203,2279.88,0.710642
4374,21.3643,2274.86,0.70943
4383,21.4082,2288.26,0.7122016
4392,21.4521,2292.57,0.713081
4401,21.4961,2306.75,0.715563
4410,21.54,2307.06,0.716711
4419,21.584,2306.73,0.717952
4428,21.62793,2316.74,0.718381
4437,21.6719,2331.95,0.722251
4446,21.71582,2314.4,0.721346
4455,21.7598,2317.21,0.722748
4464,21.8037,2326.41,0.725094
4473,21.8477,2338.29,0.728374
4482,21.8916,2343.59,0.728713
4491,21.9355,2339.04,0.729128
4500,21.9795,2343.41,0.731428
4509,22.0234,2362.63,0.732869
4518,22.0674,2361.63,0.734178
4527,22.1113,2360.76,0.735018
4536,22.1553,2370.43,0.736789
4545,22.1992,2385.09,0.7387054
4554,22.2432,2377.6,0.740329
4563,22.2871,2379.43,0.741456
4572,22.3311,2384.01,0.745482
4581,22.375,2407.02,0.745518
4590,22.4189,2394.72,0.747081
4599,22.4629,2401.8,0.748401
4608,22.5068,2410.76,0.748823
4617,22.5508,2419.61,0.7504499
4626,22.5947,2418.71,0.752106
4635,22.6387,2424.06,0.75404
4644,22.6826,2430.76,0.755872
4653,22.7266,2444.64,0.756905
4662,22.7705,2440.8,0.756025
4671,22.8145,2446.12,0.7587
4680,22.8584,2442.9,0.761107
4689,22.9023,2463.04,0.76183
4698,22.9463,2471.64,0.762291
4707,22.9902,2470.31,0.765195
4716,23.03418,2481.76,0.766965
4725,23.0781,2472.93,0.768288
4734,23.12207,2482.84,0.76924
4743,23.166,2492.1,0.771557
4752,23.21,2489.61,0.773213
4761,23.2539,2501.78,0.7747221
4770,23.2979,2511.46,0.775352
4779,23.3418,2507.07,0.777612
4788,23.3857,2520.23,0.778885
4797,23.4297,2519.8,0.779625
4806,23.4736,2532.63,0.781034
4815,23.5176,2521.14,0.784693
4824,23.5615,2535.41,0.784138
4833,23.6055,2541.94,0.784975
4842,23.6494,2544.26,0.786767
4851,23.6934,2550.17,0.788001
4860,23.7373,2548.79,0.790018
4869,23.78125,2561.84,0.792732
4878,23.8252,2576.49,0.791856
4887,23.8691,2567.38,0.795196
4896,23.9131,2576.67,0.7970345
4905,23.957,2578.75,0.797932
4914,24.001,2587.21,0.796434
4923,24.0449,2582.7,0.800722
4932,24.0889,2590.93,0.801644
4941,24.1328,2601.3,0.803483
4950,24.1768,2601.06,0.803851
4959,24.2207,2603.63,0.804945
4968,24.2646,2612.92,0.809047
4977,24.3086,2629.8,0.809301
4986,24.3525,2629.95,0.810324
4995,24.3965,2633.06,0.81223
5004,24.44043,2641.68,0.813872
5013,24.4844,2644.85,0.815388
5022,24.52832,2654.7,0.815649
5031,24.5723,2650.83,0.818739
5040,24.6162,2659.45,0.821207
5049,24.6602,2663.78,0.821636
5058,24.7041,2659.33,0.821528
5067,24.748,2661.61,0.822608
5076,24.792,2678.21,0.824411
5085,24.8359,2682.63,0.826038
5094,24.8799,2691.75,0.828681
5103,24.9238,2672.8,0.829246
5112,24.9678,2692.62,0.8312881
5121,25.0117,2695.47,0.833237
5130,25.0557,2711.51,0.834446
5139,25.0996,2709.35,0.835569
5148,25.1436,2704.89,0.837765
5157,25.1875,2720.68,0.839671
5166,25.2314,2723.85,0.839156
5175,25.2754,2739.8,0.841548
5184,25.3193,2734.65,0.8419776
5193,25.3633,2751.21,0.844578
5202,25.4072,2740.32,0.844599
5211,25.4512,2759.77,0.848465
5220,25.4951,2749.5,0.847864
5229,25.5391,2768.17,0.848422
5238,25.583,2763.41,0.852993
5247,25.627,2773.6,0.852292
5256,25.6709,2785.85,0.853622
5265,25.7148,2778.51,0.855206
5274,25.7588,2785.71,0.858357
5283,25.8027,2796.54,0.857992
5292,25.84668,2785.84,0.861905
5301,25.8906,2801.73,0.861508
5310,25.93457,2803.01,0.86252
5319,25.9785,2809.18,0.865352
5328,26.0225,2814.77,0.866171
5337,26.0664,2816.95,0.867805
5346,26.1104,2825.45,0.868868
5355,26.1543,2834.44,0.870327
5364,26.1982,2823.72,0.872591
5373,26.2422,2851.83,0.873213
5382,26.2861,2849.71,0.877039
5391,26.3301,2841.61,0.875713
5400,26.374,2858.39,0.879239
5409,26.418,2869.08,0.878795
5418,26.4619,2870.92,0.880272
5427,26.5059,2867.99,0.883745
5436,26.5498,2874.6,0.884725
5445,26.59375,2881.48,0.885068
5454,26.6377,2889.44,0.885901
5463,26.6816,2885.45,0.8874321
5472,26.7256,2897.91,0.890586
5481,26.7695,2899.85,0.891752
5490,26.8135,2912.7,0.891087
5499,26.8574,2899.28,0.894088
5508,26.9014,2914.06,0.896055
5517,26.9453,2922.1,0.897599
5526,26.9893,2929.86,0.898579
5535,27.0332,2929.36,0.899559
5544,27.0771,2926.59,0.901165
5553,27.1211,2936.78,0.904019
5562,27.165,2939.52,0.904255
5571,27.209,2945.79,0.905761
5580,27.25293,2959.21,0.907431
5589,27.2969,2961.99,0.909376
5598,27.34082,2964.31,0.909866
5607,27.3848,2959.35,0.911479
5616,27.4287,2977.34,0.912874
5625,27.4727,2974.84,0.914254
5634,27.5166,2965.31,0.91478
5643,27.5605,2976,0.917505
5652,27.6045,2991.95,0.918335
5661,27.6484,3004.85,0.920084
5670,27.6924,2993.2,0.922226
5679,27.7363,3009.77,0.922133
5688,27.7803,3008.77,0.925155
5697,27.8242,3025.12,0.9258914
5706,27.8682,3031.94,0.928205
5715,27.9121,3014.12,0.929003
5724,27.9561,3028.21,0.931238
5733,28.0,3039.45,0.932536
5742,28.0439,3042.32,0.931803
5751,28.0879,3041.68,0.9347713
5760,28.1318,3049.36,0.933666
5769,28.1758,3055.97,0.93888
5778,28.2197,3063.16,0.939131
5787,28.2637,3059.48,0.941273
5796,28.3076,3060.81,0.941795
5805,28.3516,3079.2,0.942303
5814,28.3955,3082.38,0.946856
5823,28.4395,3074.14,0.947356
5832,28.4834,3082.19,0.948526
5841,28.5273,3095.99,0.949409
5850,28.5713,3110,0.95119
5859,28.6152,3108.98,0.951523
5868,28.65918,3110.66,0.953765
5877,28.7031,3116.13,0.955939
5886,28.74707,3117.14,0.956708
5895,28.791,3111.17,0.959669
5904,28.835,3130.34,0.960871
5913,28.8789,3134.41,0.961922
5922,28.9229,3131.71,0.96257
5931,28.9668,3150.47,0.963871
5940,29.0107,3137.89,0.96498
5949,29.0547,3168.1,0.966425
5958,29.0986,3155.75,0.967076
5967,29.1426,3144.41,0.970842
5976,29.1865,3165.85,0.971743
5985,29.2305,3171.36,0.9735775
5994,29.2744,3174.4,0.974629
6003,29.3184,3183.04,0.97464
6012,29.3623,3188.82,0.977515
6021,29.40625,3176.18,0.978477
6030,29.4502,3190.89,0.979868
6039,29.4941,3202.73,0.982046
6048,29.5381,3201.69,0.982347
6057,29.582,3209.76,0.985279
6066,29.626,3210.03,0.985429
6075,29.6699,3216.11,0.988079
6084,29.7139,3213.58,0.98711
6093,29.7578,3221.76,0.9907186
6102,29.8018,3233.99,0.992614
6111,29.8457,3225.26,0.993129
6120,29.8896,3241.34,0.995203
6129,29.9336,3244.01,0.997446
6138,29.9775,3252.81,0.998365
6147,30.0215,3246.06,0.9990406
6156,30.06543,3255.31,1.00125
6165,30.1094,3270.17,1.00188
6174,30.15332,3263.87,1.00373
6183,30.1973,3280.12,1.00521
6192,30.2412,3269.33,1.00709
6201,30.2852,3285.42,1.00908
6210,30.3291,3284.41,1.00887
6219,30.373,3295.18,1.00925
6228,30.417,3295.36,1.01277
6237,30.4609,3314.21,1.01602
6246,30.5049,3298,1.01541
6255,30.5488,3305.12,1.01753
6264,30.5928,3313.65,1.01964
6273,30.6367,3324.05,1.01973
6282,30.6807,3321.74,1.02122
6291,30.7246,3317.53,1.02159
6300,30.7686,3331.41,1.025269
6309,30.8125,3351.69,1.026417
6318,30.8564,3349.71,1.02821
6327,30.9004,3359.67,1.02964
6336,30.9443,3351.93,1.03168
6345,30.9883,3369.61,1.03315
6354,31.0322,3361.18,1.03127
6363,31.0762,3366.52,1.03353
6372,31.1201,3352.72,1.03453
6381,31.1641,3380.33,1.038022
6390,31.208,3389.25,1.0394
6399,31.252,3386.15,1.0412
6408,31.2959,3397.48,1.04148
6417,31.3398,3404.73,1.04334
6426,31.3838,3398.2,1.044842
6435,31.4277,3400.76,1.04487
6444,31.47168,3413.49,1.0484
6453,31.5156,3417.71,1.04844
6462,31.55957,3426.43,1.050657
6471,31.6035,3422.94,1.05258
6480,31.6475,3428.07,1.05347
6489,31.6914,3447.8,1.05557
6498,31.7354,3450.82,1.05594
6507,31.7793,3441.68,1.05878
6516,31.8232,3450.27,1.05962
6525,31.8672,3466.45,1.05973
6534,31.9111,3459.23,1.06135
6543,31.9551,3465.82,1.064651
6552,31.999,3464.32,1.06552
6561,32.043,3485.44,1.06738
6570,32.0869,3479.18,1.06899
6579,32.1309,3483.32,1.06861
6588,32.1748,3488.37,1.07109
6597,32.21875,3506.93,1.07191
6606,32.2627,3509.45,1.07433
6615,32.3066,3498.41,1.07513
6624,32.3506,3508.08,1.07724
6633,32.3945,3512.73,1.07911
6642,32.4385,3521.35,1.080873
6651,32.4824,3527.13,1.08333
6660,32.5264,3524.76,1.08428
6669,32.5703,3538.25,1.08452
6678,32.6143,3529.15,1.08453
6687,32.6582,3544.88,1.08872
6696,32.7021,3540.63,1.08891
6705,32.7461,3547.58,1.08987
6714,32.79,3552.68,1.09156
6723,32.834,3558.34,1.093998
6732,32.87793,3559.74,1.09498
6741,32.9219,3565.73,1.095525
6750,32.96582,3573.5,1.0988
6759,33.0098,3569.22,1.09838
6768,33.0537,3587.92,1.1017
6777,33.0977,3597.96,1.10163
6786,33.1416,3600.83,1.10392
6795,33.1855,3592.29,1.10587
6804,33.2295,3597.39,1.10567
6813,33.2734,3606.79,1.10819
6822,33.3174,3607.47,1.10825
6831,33.3613,3608.95,1.11109
6840,33.4053,3607.07,1.11298
6849,33.4492,3626.31,1.11499
6858,33.4932,3638.43,1.11542
6867,33.5371,3629.39,1.11769
6876,33.5811,3645.47,1.11797
6885,33.625,3648.21,1.11927
6894,33.6689,3646.07,1.12161
6903,33.7129,3652.8,1.1233
6912,33.7568,3655.52,1.124028
6921,33.8008,3671.89,1.12512
6930,33.8447,3669.07,1.12735
6939,33.8887,3670.09,1.12779
6948,33.9326,3676.38,1.12943
6957,33.9766,3693.46,1.13156
6966,34.0205,3691.71,1.1326
6975,34.0645,3686.69,1.13436
6984,34.1084,3688.92,1.13527
6993,34.1523,3707.79,1.13792
7002,34.1963,3715.26,1.13927
7011,34.2402,3713.37,1.14031
7020,34.28418,3698.93,1.14095
7029,34.3281,3728.63,1.1445
7038,34.37207,3743.62,1.14503
7047,34.416,3712.88,1.14535
7056,34.46,3735.99,1.14906
7065,34.5039,3744.69,1.148994
7074,34.5479,3756.89,1.15313
7083,34.5918,3749.69,1.15189
7092,34.6357,3759.69,1.15313
7101,34.6797,3763.54,1.15619
7110,34.7236,3771.16,1.15511
7119,34.7676,3749.71,1.15801
7128,34.8115,3765.3,1.15988
7137,34.8555,3782.09,1.1623
7146,34.8994,3780.64,1.1622
7155,34.9434,3783.38,1.16381
7164,34.9873,3786.38,1.16667
7173,35.03125,3791.79,1.16558
7182,35.0752,3801.05,1.16826
7191,35.1191,3799.64,1.17004
7200,35.1631,3816.25,1.17135
7209,35.207,3810.12,1.17172
7218,35.251,3817.9,1.17485
7227,35.2949,3817.3,1.176635
7236,35.3389,3822.42,1.17704
7245,35.3828,3822.75,1.17891
7254,35.4268,3831.89,1.17974
7263,35.4707,3839.14,1.18346
7272,35.5146,3845.09,1.18322
7281,35.5586,3848.54,1.18476
7290,35.6025,3849.93,1.18631
7299,35.6465,3849.08,1.18837
7308,35.69043,3855.82,1.18965
7317,35.7344,3861.39,1.1904
7326,35.77832,3871.75,1.19097
7335,35.8223,3870.62,1.19306
7344,35.8662,3876.8,1.19633
7353,35.9102,3889.61,1.19608
7362,35.9541,3891.54,1.19795
7371,35.998,3897.12,1.19823
7380,36.042,3904.68,1.20048
7389,36.0859,3907.01,1.20221
7398,36.1299,3906.64,1.20277
7407,36.1738,3905.04,1.20515
7416,36.2178,3914.7,1.2054
7425,36.2617,3930.82,1.2079
7434,36.3057,3928.69,1.20854
7443,36.3496,3927.13,1.210531
7452,36.3936,3929.42,1.21236
7461,36.4375,3951.1,1.21398
7470,36.4814,3940.21,1.21505
7479,36.5254,3943.91,1.21472
7488,36.5693,3946.38,1.21839
7497,36.6133,3957.53,1.2204
7506,36.6572,3960.36,1.22045
7515,36.7012,3973.11,1.22213
7524,36.7451,3968.41,1.22456
7533,36.7891,3984.82,1.22538
7542,36.833,3989.43,1.22579
7551,36.877,3992.38,1.2295
7560,36.9209,3995.47,1.2284
7569,36.9648,4016.44,1.23069
7578,37.0088,3986.9,1.2334
7587,37.0527,4002.03,1.23523
7596,37.09668,4007.74,1.23511
7605,37.1406,4017.61,1.23678
7614,37.18457,4027.29,1.23764
7623,37.2285,4013.96,1.23866
7632,37.2725,4028.58,1.24065
7641,37.3164,4032.48,1.2422
7650,37.3604,4047.45,1.24466
7659,37.4043,4039.17,1.24522
7668,37.4482,4043.51,1.24824
7677,37.4922,4045.63,1.249373
7686,37.5361,4060.06,1.25016
7695,37.5801,4053.56,1.25252
7704,37.624,4054.14,1.25457
7713,37.668,4081.6,1.25554
7722,37.7119,4064.8,1.25649
7731,37.7559,4081.61,1.25832
7740,37.7998,4086.1,1.258657
7749,37.84375,4080.71,1.26099
7758,37.8877,4107.18,1.26313
7767,37.9316,4087.59,1.26278
7776,37.9756,4098.72,1.2642
7785,38.0195,4120.23,1.26536
7794,38.0635,4092.68,1.26708
7803,38.1074,4109.57,1.26952
7812,38.1514,4117.73,1.27074
7821,38.1953,4122.74,1.27249
7830,38.2393,4143.68,1.27291
7839,38.2832,4124.28,1.27505
7848,38.3271,4129.38,1.27539
7857,38.3711,4143.09,1.27849
7866,38.415,4141.71,1.27986
7875,38.459,4148.23,1.28194
7884,38.50293,4154.88,1.28299
7893,38.5469,4160.21,1.28354
7902,38.59082,4166.44,1.28542
7911,38.6348,4164.15,1.287117
7920,38.6787,4168.42,1.2892
7929,38.7227,4175.28,1.28924
7938,38.7666,4182.28,1.29062
7947,38.8105,4187.3,1.29177
7956,38.8545,4182.62,1.29497
7965,38.8984,4194.65,1.29635
7974,38.9424,4195.74,1.29679
7983,38.9863,4194.55,1.29923
7992,39.0303,4202.82,1.30037
8001,39.0742,4207.05,1.301955
8010,39.1182,4222.51,1.30004
8019,39.1621,4226.22,1.30518
8028,39.2061,4221.31,1.30726
8037,39.25,4231.77,1.30762
8046,39.2939,4234.4,1.30834
8055,39.3379,4230.9,1.31004
8064,39.3818,4247.63,1.31005
8073,39.4258,4258.11,1.31282
8082,39.4697,4245.96,1.31566
8091,39.5137,4260.69,1.31411
8100,39.5576,4256.52,1.31687
8109,39.6016,4269.59,1.31892
8118,39.6455,4260.82,1.32038
8127,39.6895,4266.06,1.32224
8136,39.7334,4272.19,1.32319
8145,39.7773,4288.52,1.32528
8154,39.8213,4273.29,1.32574
8163,39.8652,4287.95,1.327132
8172,39.90918,4287.96,1.3285
8181,39.9531,4296.68,1.33155
8190,39.99707,4304.16,1.33113
8199,40.041,4294.29,1.33279
8208,40.085,4310.97,1.33529
8217,40.1289,4328,1.3369
8226,40.1729,4334.92,1.33848
8235,40.2168,4314.98,1.33775
8244,40.2607,4325.63,1.34041
8253,40.3047,4338.91,1.34186
8262,40.3486,4342.18,1.34403
8271,40.3926,4350.87,1.34402
8280,40.4365,4357.45,1.34675
8289,40.4805,4344.67,1.3487
8298,40.5244,4365.59,1.34888
8307,40.5684,4361.69,1.35064
8316,40.6123,4355.03,1.35275
8325,40.65625,4385.9,1.35323
8334,40.7002,4375.51,1.35571
8343,40.7441,4385.35,1.35636
8352,40.7881,4371.64,1.3591
8361,40.832,4394.52,1.35927
8370,40.876,4391.42,1.36295
8379,40.9199,4383.29,1.36284
8388,40.9639,4404.74,1.3645
8397,41.0078,4403.98,1.36465
8406,41.0518,4410.75,1.3667
8415,41.0957,4411.1,1.36927
8424,41.1396,4415.3,1.37046
8433,41.1836,4424.02,1.37134
8442,41.2275,4427.27,1.37224
8451,41.2715,4433.43,1.37475
8460,41.31543,4431.53,1.37576
8469,41.3594,4451.19,1.37637
8478,41.40332,4448.57,1.37819
8487,41.4473,4440.59,1.38176
8496,41.4912,4460.61,1.38166
8505,41.5352,4457.89,1.38474
8514,41.5791,4465.86,1.38401
8523,41.623,4457.41,1.38567
8532,41.667,4464.18,1.38926
8541,41.7109,4487.04,1.3884
8550,41.7549,4485.77,1.39106
8559,41.7988,4469.64,1.39231
8568,41.8428,4498.47,1.39417
8577,41.8867,4494.44,1.39427
8586,41.9307,4498.36,1.39591
8595,41.9746,4510.26,1.399008
8604,42.0186,4506.23,1.39928
8613,42.0625,4516.94,1.40054
8622,42.1064,4502.93,1.40177
8631,42.1504,4509.82,1.40297
8640,42.1943,4518.95,1.40639
8649,42.2383,4526.59,1.409
8658,42.2822,4547.48,1.40874
8667,42.3262,4524.25,1.40891
8676,42.3701,4538.46,1.41208
8685,42.4141,4559.22,1.41149
8694,42.458,4548.33,1.41279
8703,42.502,4544.28,1.41544
8712,42.5459,4557.53,1.41788
8721,42.5898,4563.38,1.41906
8730,42.6338,4559.49,1.41862
8739,42.6777,4577.36,1.4221
8748,42.72168,4558.65,1.42241
8757,42.7656,4594.51,1.42426
8766,42.80957,4566.47,1.42561
8775,42.8535,4589.76,1.42686
8784,42.8975,4589.28,1.42839
8793,42.9414,4586.75,1.43051
8802,42.9854,4600.6,1.43109
8811,43.0293,4594.37,1.43229
8820,43.0732,4607.2,1.43406
8829,43.1172,4628.28,1.43572
8838,43.1611,4615.73,1.43844
8847,43.2051,4612.88,1.43898
8856,43.249,4613.94,1.440568
8865,43.293,4625.78,1.44076
8874,43.3369,4645.86,1.44405
8883,43.3809,4633.91,1.44472
8892,43.4248,4644.8,1.44453
8901,43.46875,4653.68,1.44755
8910,43.5127,4653.7,1.44844
8919,43.5566,4657.39,1.4523
8928,43.6006,4653.83,1.4513
8937,43.6445,4666.53,1.45359
8946,43.6885,4673.34,1.455617
8955,43.7324,4672.66,1.45681
8964,43.7764,4683.43,1.458807
8973,43.8203,4667.07,1.45875
8982,43.8643,4684.42,1.46114
8991,43.9082,4698.66,1.46335
9000,43.9521,4697.42,1.46323
9009,43.9961,4703.37,1.46497
9018,44.04,4713.55,1.46625
9027,44.084,4697.52,1.46824
9036,44.12793,4704.67,1.4692
9045,44.1719,4719.76,1.4708
9054,44.21582,4724.13,1.47127
9063,44.2598,4724.1,1.47453
9072,44.3037,4714.02,1.47417
9081,44.3477,4729.92,1.47572
9090,44.3916,4737.75,1.47689
9099,44.4355,4734.79,1.48023
9108,44.4795,4745.85,1.48053
9117,44.5234,4742.91,1.4817
9126,44.5674,4749.14,1.48418
9135,44.6113,4768.02,1.48555
9144,44.6553,4762.12,1.4869
9153,44.6992,4775.21,1.48885
9162,44.7432,4773.49,1.49069
9171,44.7871,4772.73,1.49247
9180,44.8311,4783.44,1.49463
9189,44.875,4783.76,1.49413
9198,44.9189,4778.74,1.494931
9207,44.9629,4793.23,1.49774
9216,45.0068,4792.72,1.50063
9225,45.0508,4809.16,1.50101
9234,45.0947,4800.8,1.50152
9243,45.1387,4804.77,1.50342
9252,45.1826,4820.25,1.50584
9261,45.2266,4808.49,1.505152
9270,45.2705,4829.38,1.50734
9279,45.3145,4828.09,1.509608
9288,45.3584,4825.59,1.51037
9297,45.4023,4844.02,1.51333
9306,45.4463,4832.7,1.51319
9315,45.4902,4846.74,1.51565
9324,45.53418,4852.96,1.51618
9333,45.5781,4850.07,1.51932
9342,45.62207,4860.47,1.5182
9351,45.666,4860.62,1.52108
9360,45.71,4847.87,1.52161
9369,45.7539,4876.47,1.52583
9378,45.7979,4872.04,1.52639
9387,45.8418,4870.39,1.52528
9396,45.8857,4881.59,1.52966
9405,45.9297,4864.03,1.53084
9414,45.9736,4899.22,1.5317
9423,46.0176,4886.54,1.5318
9432,46.0615,4895.57,1.53505
9441,46.1055,4901.39,1.53608
9450,46.1494,4891.08,1.53656
9459,46.1934,4902.13,1.53741
9468,46.2373,4911.1,1.53894
9477,46.28125,4918.1,1.54222
9486,46.3252,4925.67,1.54168
9495,46.3691,4931.56,1.545496
9504,46.4131,4922.92,1.54503
9513,46.457,4949.32,1.54796
9522,46.501,4933.09,1.54746
9531,46.5449,4943.41,1.549505
9540,46.5889,4934.49,1.5532
9549,46.6328,4950.86,1.55223
9558,46.6768,4962.79,1.55515
9567,46.7207,4954.23,1.55624
9576,46.7646,4957.58,1.55901
9585,46.8086,4970.9,1.5599
9594,46.8525,4978.24,1.56062
9603,46.8965,4975.87,1.56199
9612,46.94043,4977.92,1.56297
9621,46.9844,4979.83,1.565423
9630,47.02832,4994.35,1.56716
9639,47.0723,4997.25,1.56829
9648,47.1162,4999.92,1.56871
9657,47.1602,5000.66,1.5699
9666,47.2041,5009.24,1.57186
9675,47.248,5010.46,1.57451
9684,47.292,5007.58,1.575526
9693,47.3359,5025.39,1.57727
9702,47.3799,5029.67,1.57739
9711,47.4238,5026.07,1.58042
9720,47.4678,5034.26,1.57991
9729,47.5117,5039.8,1.58313
9738,47.5557,5042.12,1.58443
9747,47.5996,5041.97,1.58582
9756,47.6436,5047.02,1.58757
9765,47.6875,5053.08,1.58815
9774,47.7314,5057.09,1.58984
9783,47.7754,5066.11,1.59183
9792,47.8193,5065.24,1.59348
9801,47.8633,5074.18,1.59551
9810,47.9072,5076.39,1.59554
9819,47.9512,5078.56,1.59877
9828,47.9951,5074.82,1.59773
9837,48.0391,5095.79,1.5995
9846,48.083,5084.98,1.60228
9855,48.127,5088.08,1.60243
9864,48.1709,5108.77,1.60559
9873,48.2148,5098.15,1.60585
9882,48.2588,5114.7,1.60738
9891,48.3027,5107.99,1.60905
9900,48.34668,5111.37,1.61013
9909,48.3906,5125.56,1.6126
9918,48.43457,5124.19,1.61228
9927,48.4785,5121.46,1.6151
9936,48.5225,5137.2,1.61707
9945,48.5664,5125.73,1.61794
9954,48.6104,5145.83,1.61926
9963,48.6543,5140.43,1.62067
9972,48.6982,5143.37,1.621449
9981,48.7422,5160.25,1.62329
9990,48.7861,5144.71,1.62489
9999,48.8301,5153.55,1.62589
10008,48.874,5172.25,1.63005
10017,48.918,5170.12,1.62972
10026,48.9619,5169.74,1.63072
10035,49.0059,5166.79,1.63187
10044,49.0498,5183.17,1.6328
10053,49.09375,5182.33,1.63542
10062,49.1377,5195.17,1.63674
10071,49.1816,5194.58,1.6379
10080,49.2256,5204.74,1.63976
10089,49.2695,5192.94,1.64028
10098,49.3135,5206.7,1.64243
10107,49.3574,5209.06,1.644516
10116,49.4014,5212.87,1.64591
10125,49.4453,5219.73,1.64664
10134,49.4893,5219.4,1.64795
10143,49.5332,5225.32,1.64928
10152,49.5771,5230.71,1.65129
10161,49.6211,5223.45,1.65321
10170,49.665,5237.15,1.65464
10179,49.709,5237.29,1.65542
10188,49.75293,5237.47,1.65778
10197,49.7969,5250.82,1.65836
10206,49.84082,5249.2,1.66039
10215,49.8848,5248.27,1.66249
10224,49.9287,5253.99,1.66241
10233,49.9727,5260.54,1.6651
10242,50.0166,5274.12,1.6648
10251,50.0605,5272.27,1.66881
10260,50.1045,5278.04,1.66953
10269,50.1484,5281.06,1.67096
10278,50.1924,5280.57,1.67136
10287,50.2363,5295.2,1.67368
10296,50.2803,5297.11,1.6744
10305,50.3242,5296.92,1.67501
10314,50.3682,5309.45,1.67702
10323,50.4121,5297.32,1.67882
10332,50.4561,5309.02,1.68202
10341,50.5,5311.94,1.68176
10350,50.5439,5315.67,1.68324
10359,50.5879,5326.45,1.68539
10368,50.6318,5326.25,1.68602
10377,50.6758,5327.13,1.68916
10386,50.7197,5342,1.68864
10395,50.7637,5335.76,1.69113
10404,50.8076,5331.2,1.69115
10413,50.8516,5350.2,1.6953
10422,50.8955,5356.8,1.69437
10431,50.9395,5356.35,1.69639
10440,50.9834,5350.85,1.69952
10449,51.0273,5374.2,1.70012
10458,51.0713,5371.82,1.70059
10467,51.1152,5365.87,1.70224
10476,51.15918,5380.68,1.70355
10485,51.2031,5381.7,1.70545
10494,51.24707,5390.38,1.70654
10503,51.291,5390.21,1.70826
10512,51.335,5390.63,1.71227
10521,51.3789,5405.35,1.71046
10530,51.4229,5403.59,1.71064
10539,51.4668,5402.55,1.71389
10548,51.5107,5410.17,1.71596
10557,51.5547,5419.8,1.71737
10566,51.5986,5420.56,1.71886
10575,51.6426,5418.66,1.71921
10584,51.6865,5423.1,1.72362
10593,51.7305,5437.76,1.724292
10602,51.7744,5432.18,1.72421
10611,51.8184,5430.46,1.725
10620,51.8623,5441.49,1.7272
10629,51.90625,5443.13,1.72998
10638,51.9502,5458.91,1.73039
10647,51.9941,5455.84,1.73079
10656,52.0381,5465.52,1.73339
10665,52.082,5474.98,1.73705
10674,52.126,5462.43,1.73674
10683,52.1699,5476.02,1.73828
10692,52.2139,5470.17,1.73987
10701,52.2578,5488.23,1.74076
10710,52.3018,5485.12,1.74205
10719,52.3457,5477.64,1.743021
10728,52.3896,5486.53,1.74438
10737,52.4336,5501.66,1.74783
10746,52.4775,5499.61,1.74785
10755,52.5215,5497.88,1.74981
10764,52.5654,5496.44,1.75091
10773,52.6094,5506.11,1.75071
10782,52.6533,5515.97,1.75384
10791,52.6973,5503.99,1.75477
10800,52.7412,5513.17,1.75822
10809,52.7852,5519.46,1.75847
10818,52.8291,5520.01,1.76087
10827,52.873,5528.96,1.76184
10836,52.917,5533.52,1.762805
10845,52.9609,5542.74,1.7635
10854,53.0049,5557.35,1.76494
10863,53.0488,5534.68,1.76727
10872,53.0928,5553.95,1.76917
10881,53.1367,5558.33,1.77193
10890,53.1807,5553.18,1.77232
10899,53.2246,5562.96,1.77337
10908,53.2686,5559.32,1.77451
10917,53.3125,5569.38,1.7766
10926,53.3564,5578.8,1.77586
10935,53.4004,5561.69,1.77952
10944,53.4443,5588.83,1.78022
10953,53.4883,5588.3,1.78022
10962,53.5322,5578.54,1.78297
10971,53.5762,5601.1,1.7838
10980,53.6201,5586.86,1.7858
10989,53.6641,5597.13,1.78795
10998,53.708,5607.79,1.78854
11007,53.752,5612.81,1.79003
11016,53.7959,5624.54,1.792
11025,53.8398,5611.43,1.7942
11034,53.8838,5616.37,1.7948
11043,53.9277,5627.51,1.79722
11052,53.9717,5633.79,1.79875
11061,54.0156,5640.03,1.79866
11070,54.0596,5641.09,1.80132
11079,54.1035,5640.54,1.80326
11088,54.1475,5644.82,1.80586
11097,54.1914,5652.74,1.805023
11106,54.2354,5663.85,1.80597
11115,54.2793,5661.9,1.80766
11124,54.3232,5659.53,1.81024
11133,54.3672,5667.37,1.81252
11142,54.4111,5670.01,1.81184
11151,54.4551,5674.69,1.81562
11160,54.499,5681.29,1.815623
11169,54.543,5696.89,1.81864
11178,54.5869,5690.27,1.81845
11187,54.6309,5690.12,1.82043
11196,54.6748,5702.04,1.822021
11205,54.71875,5706.07,1.82319
11214,54.7627,5706.31,1.82472
11223,54.8066,5706.46,1.82643
11232,54.8506,5708.96,1.82781
11241,54.8945,5712.77,1.83005
11250,54.9385,5725.64,1.82932
11259,54.9824,5709.9,1.83212
11268,55.0264,5720.19,1.83434
11277,55.0703,5744.2,1.83671
11286,55.1143,5735.03,1.83574
11295,55.1582,5741.06,1.83798
11304,55.2021,5734.02,1.83959
11313,55.2461,5749.12,1.83962
11322,55.29,5754.3,1.8423
11331,55.334,5755.26,1.84327
11340,55.3779,5754.01,1.84454
11349,55.4219,5759.44,1.84639
11358,55.4658,5766.58,1.84702
11367,55.5098,5751.28,1.84904
11376,55.5537,5773.13,1.84943
11385,55.5977,5774.46,1.85099
11394,55.6416,5794.32,1.8535
11403,55.6855,5775.8,1.85534
11412,55.7295,5782.76,1.85642
11421,55.7734,5795.12,1.85903
11430,55.8174,5796.17,1.85997
11439,55.8613,5796.43,1.86126
11448,55.9053,5797.44,1.86391
11457,55.9492,5801.28,1.86398
11466,55.9932,5809.68,1.86453
11475,56.0371,5815.39,1.86738
11484,56.0811,5823.04,1.86845
11493,56.125,5821.96,1.87019
11502,56.1689,5824.76,1.87291
11511,56.2129,5833.64,1.87288
11520,56.2568,5821.81,1.87384
11529,56.3008,5839.1,1.87388
11538,56.3447,5836.17,1.87626
11547,56.3887,5839.07,1.88002
11556,56.4326,5836.86,1.87976
11565,56.4766,5873.01,1.88102
11574,56.5205,5851.73,1.88308
11583,56.5645,5870.35,1.884
11592,56.6084,5858.59,1.8854
11601,56.6523,5866.14,1.88888
11610,56.6963,5882.75,1.88863
11619,56.7402,5864.4,1.89125
11628,56.7842,5876.94,1.89227
11637,56.8281,5877.59,1.89159
11646,56.8721,5879,1.89317
11655,56.916,5888.81,1.895839
11664,56.96,5892.66,1.89687
11673,57.0039,5902.6,1.89928
11682,57.0479,5899.2,1.90144
11691,57.0918,5900.41,1.90215
11700,57.1357,5909.64,1.90326
11709,57.1797,5906.19,1.90582
11718,57.2236,5913.21,1.90589
11727,57.2676,5914.82,1.90747
11736,57.3115,5918.26,1.90906
11745,57.3555,5933.02,1.91134
11754,57.3994,5928.74,1.9123
11763,57.4434,5936.67,1.91442
11772,57.4873,5942.36,1.9146
11781,57.53125,5948.49,1.9166
11790,57.5752,5952.91,1.91733
11799,57.6191,5944.34,1.9187
11808,57.6631,5945.69,1.92223
11817,57.707,5969.93,1.92384
11826,57.751,5960.64,1.92362
11835,57.7949,5964.27,1.923902
11844,57.8389,5965.64,1.92592
11853,57.8828,5981.02,1.930021
11862,57.9268,5979.97,1.92922
11871,57.9707,5980.38,1.93174
11880,58.0146,5982.73,1.93141
11889,58.0586,6005.42,1.93698
11898,58.1025,5996.88,1.9348
11907,58.1465,6001.58,1.93752
11916,58.1904,5999.32,1.93746
11925,58.2344,6013.13,1.93994
11934,58.2783,6018.5,1.94187
11943,58.3223,6002.75,1.94272
11952,58.3662,6020.63,1.94513
11961,58.4102,6029.76,1.94507
11970,58.4541,6023.32,1.94631
11979,58.498,6020.94,1.94836
11988,58.542,6036.69,1.95135
11997,58.5859,6027.6,1.95269
12006,58.6299,6045.42,1.953975
12015,58.6738,6039.9,1.95573
12024,58.7178,6045.69,1.9563
12033,58.7617,6053.27,1.95911
12042,58.8057,6050.92,1.958971
12051,58.8496,6059.81,1.96181
12060,58.8936,6059.16,1.96267
12069,58.9375,6068.15,1.962
12078,58.9814,6074.74,1.96539
12087,59.0254,6068.76,1.96461
12096,59.0693,6056.42,1.9692
12105,59.1133,6090.57,1.96895
12114,59.1572,6073.69,1.97151
12123,59.2012,6080.7,1.97319
12132,59.2451,6085.04,1.97435
12141,59.2891,6086.28,1.97565
12150,59.333,6100.05,1.97516
12159,59.377,6091.68,1.97977
12168,59.4209,6105.41,1.98129
12177,59.4648,6105.57,1.98195
12186,59.5088,6105.65,1.98367
12195,59.5527,6117.44,1.98345
12204,59.5967,6121.27,1.98716
12213,59.6406,6116.79,1.98724
12222,59.6846,6120.96,1.98775
12231,59.7285,6129.4,1.99001
12240,59.7725,6127.52,1.99346
12249,59.8164,6140.37,1.99164
12258,59.8604,6128.48,1.99513
12267,59.9043,6145.36,1.99505
12276,59.9482,6141.68,1.997323
12285,59.9922,6146.4,1.99829
12294,60.0361,6165.49,2.00096
12303,60.0801,6152.55,2.00235
12312,60.124,6158.16,2.00333
12321,60.168,6163.52,2.00533
12330,60.2119,6172.2,2.00534
12339,60.2559,6177.53,2.00891
12348,60.2998,6169.47,2.01016
12357,60.34375,6178.04,2.01086
12366,60.3877,6175.74,2.01087
12375,60.4316,6182.14,2.01322
12384,60.4756,6180.84,2.01533
12393,60.5195,6196.25,2.01724
12402,60.5635,6193.18,2.01915
12411,60.6074,6211.34,2.01797
12420,60.6514,6204.24,2.02187
12429,60.6953,6214.37,2.02301
12438,60.7393,6212.34,2.02434
12447,60.7832,6210.3,2.02655
12456,60.8271,6214.28,2.02617
12465,60.8711,6231.48,2.02918
12474,60.915,6232.69,2.02776
12483,60.959,6233.39,2.03104
12492,61.0029,6220.86,2.0331
12501,61.0469,6245.62,2.03379
12510,61.0908,6245.37,2.03521
12519,61.1348,6240.77,2.0356
12528,61.1787,6263.2,2.03848
12537,61.2227,6248.17,2.03952
12546,61.2666,6250.95,2.04287
12555,61.3105,6266.67,2.041719
12564,61.3545,6252.21,2.04407
12573,61.3984,6277.78,2.045331
12582,61.4424,6266.25,2.047466
12591,61.4863,6273.74,2.04844
12600,61.5303,6283.69,2.04975
12609,61.5742,6283.89,2.051847
12618,61.6182,6292.16,2.05229
12627,61.6621,6286.5,2.05471
12636,61.7061,6284.56,2.05562
12645,61.75,6284.11,2.05675
12654,61.7939,6300.76,2.05903
12663,61.8379,6302.07,2.061435
12672,61.8818,6309.21,2.06288
12681,61.9258,6306.95,2.06322
12690,61.9697,6318.63,2.06482
12699,62.0137,6313.24,2.0653
12708,62.0576,6320.22,2.06602
12717,62.1016,6326.86,2.069943
12726,62.1455,6337.31,2.07
12735,62.1895,6330.29,2.07242
12744,62.2334,6331.24,2.07305
12753,62.2773,6325.9,2.074306
12762,62.3213,6342.72,2.07564
12771,62.3652,6339.4,2.07857
12780,62.4092,6340.81,2.07938
12789,62.4531,6369.91,2.08001
12798,62.4971,6355.32,2.08238
12807,62.541,6353.53,2.08419
12816,62.585,6360.54,2.08545
12825,62.6289,6372.51,2.0871
12834,62.6729,6367.85,2.08764
12843,62.7168,6379.79,2.08902
12852,62.7607,6367.73,2.09184
12861,62.8047,6372.95,2.09084
12870,62.8486,6374.34,2.09413
12879,62.8926,6383.39,2.09578
12888,62.9365,6389.92,2.09714
12897,62.9805,6394.52,2.09867
12906,63.0244,6388.02,2.10015
12915,63.0684,6392.46,2.101
12924,63.1123,6395.1,2.103982
12933,63.15625,6418.23,2.10473
12942,63.2002,6396.79,2.1045
12951,63.2441,6414.5,2.10666
12960,63.2881,6415.83,2.1086
12969,63.332,6417.59,2.1096
12978,63.376,6437.55,2.11195
12987,63.4199,6426.62,2.11298
12996,63.4639,6419.41,2.11516
13005,63.5078,6458.77,2.11537
13014,63.5518,6439.6,2.11776
13023,63.5957,6442.39,2.11916
13032,63.6396,6444.17,2.12216
13041,63.6836,6453.06,2.12245
13050,63.7275,6449.87,2.12334
13059,63.7715,6453.25,2.12444
13068,63.8154,6466.27,2.125994
13077,63.8594,6471.34,2.12974
13086,63.9033,6462.98,2.12995
13095,63.9473,6474.58,2.12952
13104,63.9912,6475.84,2.13208
13113,64.0352,6487.75,2.13393
13122,64.0791,6484.15,2.13606
13131,64.123,6477.71,2.13639
13140,64.167,6473.11,2.13728
13149,64.2109,6497.78,2.13888
13158,64.2549,6496.99,2.14139
13167,64.2988,6493.96,2.14177
13176,64.3428,6494.09,2.14296
13185,64.3867,6513.49,2.145
13194,64.4307,6505.66,2.14816
13203,64.4746,6512.89,2.15138
13212,64.5186,6517.15,2.14829
13221,64.5625,6512.95,2.1518
13230,64.6064,6515.12,2.15235
13239,64.6504,6525.74,2.1553
13248,64.6943,6530.32,2.15627
13257,64.7383,6385.92,2.15751
13258,64.7432,1674.53,2.17796