File: ASM109_2021_data/MTS/90/MTS_90_7.csv
,Time [s],Load [N],Displacement [mm]
0,0.0078125,-375.452,0.0005543232
8,0.046875,-366.957,0.000375509
16,0.0859375,-361.882,0.00111938
24,0.125,-360.163,0.00510335
32,0.1640625,-348.658,0.00325799
40,0.203125,-342.648,0.00507832
48,0.2421875,-345.152,0.00804305
56,0.28125,-333.209,0.00839353
64,0.3203125,-331.117,0.01047492
72,0.359375,-330.423,0.0104856
80,0.3984375,-319.014,0.0113583
88,0.4375,-313.192,0.0148952
96,0.4765625,-308.676,0.016036
104,0.515625,-301.527,0.0182748
112,0.5546875,-302.921,0.0182569
120,0.59375,-296.111,0.0178385
128,0.6328125,-293.142,0.0202453
136,0.671875,-282.572,0.0230849
144,0.7109375,-275.78,0.0234675
152,0.75,-281.646,0.0252056
160,0.7890625,-263.712,0.0258672
168,0.828125,-257.948,0.0269902
176,0.8671875,-259.532,0.0286102
184,0.90625,-246.077,0.0293934
192,0.9453125,-251.565,0.0288963
200,0.984375,-244.949,0.0308704
208,1.02344,-224.948,0.0330126
216,1.0625,-229.756,0.0349545
224,1.10156,-221.183,0.0359917
232,1.140625,-208.322,0.03834486
240,1.17969,-217.004,0.0396502
248,1.21875,-199.24,0.0417709
256,1.25781,-203.761,0.0421107
264,1.296875,-203.395,0.0424361
272,1.33594,-188.456,0.0441957
280,1.375,-182.671,0.04540801
288,1.41406,-186.221,0.0467241
296,1.453125,-175.005,0.0476861
304,1.49219,-166.988,0.0499392
312,1.53125,-166.732,0.0499177
320,1.57031,-165.885,0.0521028
328,1.609375,-158.377,0.0532222
336,1.64844,-150.53,0.0538123
344,1.6875,-150.531,0.0563085
352,1.72656,-130.138,0.0572419
360,1.765625,-140.499,0.0573885
368,1.80469,-122.891,0.0600886
376,1.84375,-135.962,0.0604141
384,1.88281,-106.885,0.06298542
392,1.921875,-116.947,0.064441
400,1.96094,-103.321,0.0645733
408,2.0,-103.666,0.0655246
416,2.03906,-92.5875,0.0674772
424,2.078125,-94.7805,0.0677419
432,2.11719,-89.6287,0.06983757
440,2.15625,-90.771,0.071876
448,2.19531,-71.5477,0.0744975
456,2.234375,-83.2551,0.0734746
464,2.27344,-70.6957,0.07491231
472,2.3125,-57.1018,0.0757313
480,2.35156,-60.8304,0.0788355
488,2.390625,-55.4629,0.0797868
496,2.42969,-45.5645,0.0798726
504,2.46875,-57.8825,0.081811
512,2.50781,-32.7865,0.085448
520,2.546875,-29.6147,0.0851262
528,2.58594,-33.8781,0.08603096
536,2.625,-15.5826,0.0871396
544,2.66406,-4.90516,0.0868499
552,2.703125,-24.3691,0.0884736
560,2.74219,-18.2943,0.0909913
568,2.78125,7.34642,0.0914776
576,2.82031,1.92944,0.0939918
584,2.859375,0.377828,0.0928652
592,2.89844,22.0991,0.0960338
600,2.9375,14.1753,0.0972283
608,2.97656,23.5703,0.0990021
616,3.015625,20.544,0.100983
624,3.05469,30.7176,0.101595
632,3.09375,38.0862,0.101892
640,3.13281,49.4099,0.104878
648,3.171875,50.0991,0.105894
656,3.21094,47.802,0.10584
664,3.25,56.6424,0.106183
672,3.28906,57.35,0.1101172
680,3.328125,70.4666,0.112517
688,3.36719,85.4709,0.111762
696,3.40625,79.5135,0.112917
704,3.44531,83.8632,0.113332
712,3.484375,91.66,0.115628
720,3.52344,89.9679,0.117245
728,3.5625,86.7876,0.118496
736,3.60156,107.539,0.118657
744,3.640625,115.724,0.120832
752,3.67969,114.18,0.120506
760,3.71875,115.571,0.122688
768,3.75781,118.383,0.124036
776,3.796875,124.722,0.125685
784,3.83594,149.438,0.126683
792,3.875,140.384,0.1278019
800,3.91406,140.642,0.129139
808,3.953125,158.177,0.129347
816,3.99219,152.387,0.132726
824,4.03125,159.408,0.133774
832,4.07031,160.023,0.134926
840,4.109375,169.692,0.135155
848,4.14844,174.052,0.137866
856,4.1875,185.937,0.138105
864,4.22656,191.929,0.141113
872,4.265625,175.758,0.141449
880,4.30469,196.547,0.143262
888,4.34375,198.654,0.143659
896,4.38281,199.77,0.145243
904,4.421875,215.195,0.148054
912,4.46094,221.072,0.145165
920,4.5,229.424,0.149753
928,4.53906,220.905,0.149825
936,4.578125,226.91,0.150858
944,4.61719,234.257,0.155271
952,4.65625,238.316,0.154334
960,4.69531,240.986,0.153315
968,4.734375,250.443,0.157481
976,4.77344,256.388,0.156705
984,4.8125,268.372,0.159488
992,4.85156,254.512,0.160407
1000,4.890625,270.098,0.161719
1008,4.92969,268.604,0.164073
1016,4.96875,277.401,0.16389
1024,5.00781,276.215,0.166225
1032,5.046875,292.83,0.168478
1040,5.08594,291.829,0.168407
1048,5.125,304.488,0.169609
1056,5.16406,298.392,0.171529
1064,5.203125,305.139,0.172949
1072,5.24219,311.319,0.174118
1080,5.28125,325.85,0.173936
1088,5.32031,322.967,0.175992
1096,5.359375,333.517,0.177988
1104,5.39844,335.688,0.179136
1112,5.4375,325.535,0.178835
1120,5.47656,348.827,0.180459
1128,5.515625,347.619,0.1846
1136,5.55469,354.123,0.184343
1144,5.59375,357.608,0.184919
1152,5.63281,361.287,0.1857841
1160,5.671875,367.084,0.186338
1168,5.71094,375.535,0.188953
1176,5.75,373.622,0.190437
1184,5.78906,389.227,0.191946
1192,5.828125,390.303,0.194145
1200,5.86719,394.677,0.19421
1208,5.90625,393.921,0.198151
1216,5.94531,393.953,0.197221
1224,5.984375,414.553,0.19765
1232,6.02344,412.356,0.198891
1240,6.0625,417.593,0.202249
1248,6.10156,426.037,0.202174
1256,6.140625,435.215,0.204992
1264,6.17969,433.697,0.204248
1272,6.21875,437.543,0.205446
1280,6.25781,445.738,0.207177
1288,6.296875,440.444,0.208969
1296,6.33594,461.288,0.210975
1304,6.375,459.019,0.211673
1312,6.41406,458.171,0.21305
1320,6.453125,472.14,0.214877
1328,6.49219,474.128,0.214673
1336,6.53125,476.554,0.217599
1344,6.57031,483.355,0.2185
1352,6.609375,482.578,0.219308
1360,6.64844,486.742,0.220417
1368,6.6875,503.183,0.221672
1376,6.72656,503.945,0.223904
1384,6.765625,494.403,0.224841
1392,6.80469,515.532,0.224655
1400,6.84375,505.956,0.22615
1408,6.88281,522.845,0.228585
1416,6.921875,530.788,0.23013
1424,6.96094,535.656,0.230763
1432,7.0,540.966,0.232959
1440,7.03906,545.918,0.234901
1448,7.078125,539.253,0.232923
1456,7.11719,550.501,0.235391
1464,7.15625,555.871,0.236871
1472,7.19531,568.832,0.240015
1480,7.234375,554.919,0.239893
1488,7.27344,565.275,0.241302
1496,7.3125,578.878,0.2433908
1504,7.35156,574.57,0.244145
1512,7.390625,588.146,0.246084
1520,7.42969,589.387,0.247028
1528,7.46875,591.308,0.247757
1536,7.50781,599.125,0.250454
1544,7.546875,602.083,0.249946
1552,7.58594,609.749,0.253068
1560,7.625,615.481,0.2528286
1568,7.66406,623.699,0.254166
1576,7.703125,618.005,0.256605
1584,7.74219,635.309,0.256037
1592,7.78125,637.16,0.258218
1600,7.82031,636.965,0.259316
1608,7.859375,644.951,0.2615726
1616,7.89844,648.191,0.262306
1624,7.9375,642.449,0.264169
1632,7.97656,669.252,0.266726
1640,8.015625,658.472,0.266776
1648,8.05469,656.434,0.266898
1656,8.09375,674.358,0.267867
1664,8.13281,691.161,0.270313
1672,8.171875,678.361,0.271693
1680,8.21094,685.972,0.271811
1688,8.25,688.583,0.273203
1696,8.28906,695.034,0.27532
1704,8.328125,711.046,0.276829
1712,8.36719,695.436,0.27851
1720,8.40625,705.958,0.280023
1728,8.44531,721.905,0.281146
1736,8.484375,727.81,0.282025
1744,8.52344,729.909,0.284182
1752,8.5625,731.908,0.284107
1760,8.60156,741.459,0.287747
1768,8.640625,740.867,0.286045
1776,8.67969,752.408,0.286521
1784,8.71875,747.772,0.289807
1792,8.75781,758.937,0.289997
1800,8.796875,760.982,0.291606
1808,8.83594,783.255,0.2926
1816,8.875,756.982,0.295508
1824,8.91406,774.065,0.296674
1832,8.953125,786.653,0.296298
1840,8.99219,781.106,0.298998
1848,9.03125,793.583,0.299792
1856,9.07031,797.679,0.300983
1864,9.109375,801.581,0.301791
1872,9.14844,795.975,0.303308
1880,9.1875,805.986,0.3056
1888,9.22656,815.188,0.307056
1896,9.265625,813.438,0.3085506
1904,9.30469,831.789,0.31002
1912,9.34375,821.042,0.308754
1920,9.38281,835.654,0.311233
1928,9.421875,844.591,0.314094
1936,9.46094,842.369,0.313497
1944,9.5,837.519,0.314877
1952,9.53906,855.882,0.315589
1960,9.578125,861.567,0.317849
1968,9.61719,865.825,0.319351
1976,9.65625,862.488,0.320274
1984,9.69531,865.62,0.321872
1992,9.734375,866.194,0.32214
2000,9.77344,880.708,0.324218
2008,9.8125,884.03,0.326722
2016,9.85156,886.02,0.325592
2024,9.890625,882.773,0.329243
2032,9.92969,902.693,0.329479
2040,9.96875,907.391,0.330981
2048,10.0078,916.664,0.332322
2056,10.0469,918.167,0.332508
2064,10.0859,917.064,0.334375
2072,10.125,938.164,0.335448
2080,10.1641,927.077,0.337472
2088,10.2031,930.752,0.337433
2096,10.2422,934.631,0.339664
2104,10.28125,937.659,0.341005
2112,10.3203,945.659,0.342443
2120,10.3594,958.987,0.343398
2128,10.3984,950.4,0.3457582
2136,10.4375,953.647,0.346406
2144,10.4766,979.34,0.34716
2152,10.5156,970.55,0.348312
2160,10.5547,972.678,0.34976
2168,10.59375,973.598,0.351373
2176,10.6328,990.307,0.352811
2184,10.6719,985.9,0.35339
2192,10.7109,993.322,0.355661
2200,10.75,1000.46,0.356716
2208,10.7891,1015.21,0.359405
2216,10.8281,1009.09,0.360389
2224,10.8672,1002.2,0.359262
2232,10.90625,1023.19,0.36272
2240,10.9453,1036.64,0.364734
2248,10.9844,1026.25,0.36375
2256,11.0234,1028.06,0.365199
2264,11.0625,1041.45,0.366715
2272,11.1016,1049.81,0.36738
2280,11.1406,1053.77,0.370442
2288,11.1797,1056.86,0.369455
2296,11.21875,1055.33,0.372301
2304,11.2578,1052.5,0.373703
2312,11.2969,1073.02,0.375384
2320,11.3359,1070.39,0.3770864
2328,11.375,1071.3,0.377448
2336,11.4141,1089.97,0.378824
2344,11.4531,1087.54,0.38126
2352,11.4922,1094.5,0.382
2360,11.53125,1102.02,0.382973
2368,11.5703,1105.03,0.384382
2376,11.6094,1110.62,0.386285
2384,11.6484,1120.02,0.386746
2392,11.6875,1122.65,0.388988
2400,11.7266,1112.09,0.39049
2408,11.7656,1128.06,0.389961
2416,11.8047,1139.43,0.393072
2424,11.84375,1125.84,0.393323
2432,11.8828,1137.64,0.395608
2440,11.9219,1148.27,0.395494
2448,11.9609,1138.81,0.397568
2456,12.0,1158.2,0.4005897
2464,12.0391,1167.96,0.400236
2472,12.0781,1166.94,0.401641
2480,12.1172,1170.24,0.402009
2488,12.15625,1174.11,0.401956
2496,12.1953,1178.09,0.405893
2504,12.2344,1181.03,0.406287
2512,12.2734,1183.46,0.408164
2520,12.3125,1194.66,0.408114
2528,12.3516,1185.48,0.409684
2536,12.3906,1206.7,0.411841
2544,12.4297,1206.07,0.413496
2552,12.46875,1218.58,0.414662
2560,12.5078,1216.38,0.416347
2568,12.5469,1213.13,0.416944
2576,12.5859,1220.76,0.418671
2584,12.625,1233.87,0.420041
2592,12.6641,1241.1,0.421915
2600,12.7031,1238.97,0.422333
2608,12.7422,1237.64,0.424347
2616,12.78125,1265.88,0.424719
2624,12.8203,1258.34,0.427058
2632,12.8594,1260.94,0.428052
2640,12.8984,1260.05,0.429153
2648,12.9375,1264.78,0.430516
2656,12.9766,1272.51,0.431614
2664,13.0156,1284.04,0.433624
2672,13.0547,1284.83,0.433692
2680,13.09375,1292.18,0.435312
2688,13.1328,1294.87,0.437812
2696,13.1719,1303.72,0.437447
2704,13.2109,1302.34,0.439543
2712,13.25,1320.06,0.440644
2720,13.2891,1309.49,0.440036
2728,13.3281,1312.63,0.442157
2736,13.3672,1319.58,0.444345
2744,13.40625,1327.31,0.4462266
2752,13.4453,1337.99,0.44785
2760,13.4844,1340.84,0.447993
2768,13.5234,1348.82,0.452006
2776,13.5625,1341.99,0.451977
2784,13.6016,1357.43,0.452782
2792,13.6406,1363.46,0.45447
2800,13.6797,1366.41,0.454935
2808,13.71875,1376.76,0.456165
2816,13.7578,1369,0.458994
2824,13.7969,1376.8,0.459387
2832,13.8359,1388.84,0.46061
2840,13.875,1384.97,0.4610002
2848,13.9141,1392.79,0.462148
2856,13.9531,1401.86,0.464594
2864,13.9922,1397.88,0.465771
2872,14.03125,1401.46,0.467298
2880,14.0703,1401.62,0.468031
2888,14.1094,1407.96,0.469236
2896,14.1484,1428.37,0.47106
2904,14.1875,1427.73,0.472226
2912,14.2266,1426.8,0.4742
2920,14.2656,1440.49,0.474544
2928,14.3047,1444.86,0.475155
2936,14.34375,1446.21,0.477837
2944,14.3828,1448.27,0.4763031
2952,14.4219,1464.83,0.480305
2960,14.4609,1459.79,0.481507
2968,14.5,1476.48,0.482601
2976,14.5391,1465.27,0.483956
2984,14.5781,1478.84,0.486081
2992,14.6172,1480.27,0.485984
3000,14.65625,1484.39,0.488652
3008,14.6953,1485.41,0.488588
3016,14.7344,1493.73,0.489957
3024,14.7734,1506.96,0.491306
3032,14.8125,1498.54,0.494428
3040,14.8516,1500.44,0.494957
3048,14.8906,1514.3,0.495983
3056,14.9297,1519.04,0.496548
3064,14.96875,1515.01,0.4978
3072,15.0078,1525.12,0.500264
3080,15.0469,1527.89,0.501194
3088,15.0859,1533.12,0.501498
3096,15.125,1549.16,0.504581
3104,15.1641,1538.42,0.503891
3112,15.2031,1543.05,0.506237
3120,15.2422,1562.71,0.506984
3128,15.28125,1567.71,0.509766
3136,15.3203,1569.23,0.510192
3144,15.3594,1560.72,0.508347
3152,15.3984,1558.87,0.5134964
3160,15.4375,1573.15,0.514448
3168,15.4766,1595.3,0.515145
3176,15.5156,1582.2,0.5149734
3184,15.5547,1594.79,0.518149
3192,15.59375,1590.34,0.519626
3200,15.6328,1601.89,0.521075
3208,15.6719,1608.81,0.522208
3216,15.7109,1605.4,0.522584
3224,15.75,1609.29,0.5237174
3232,15.7891,1629,0.525917
3240,15.8281,1618.18,0.525917
3248,15.8672,1629.27,0.527891
3256,15.90625,1645.57,0.530044
3264,15.9453,1634.37,0.531185
3272,15.9844,1644.36,0.531642
3280,16.0234,1659.76,0.534461
3288,16.0625,1648.23,0.533552
3296,16.1016,1663.42,0.536574
3304,16.1406,1671.49,0.53666
3312,16.1797,1670.79,0.538641
3320,16.21875,1670.54,0.540859
3328,16.2578,1680.9,0.540648
3336,16.2969,1678.47,0.542575
3344,16.3359,1685.45,0.544263
3352,16.375,1691.44,0.545082
3360,16.4141,1700.91,0.54642
3368,16.4531,1685.47,0.547099
3376,16.4922,1699.66,0.549449
3384,16.53125,1720.6,0.550675
3392,16.5703,1723.17,0.550654
3400,16.6094,1713.43,0.554008
3408,16.6484,1721.28,0.552428
3416,16.6875,1727.81,0.555013
3424,16.7266,1732.74,0.557928
3432,16.7656,1738.29,0.558568
3440,16.8047,1747.4,0.559162
3448,16.84375,1745.88,0.559723
3456,16.8828,1760.39,0.560124
3464,16.9219,1762.34,0.563722
3472,16.9609,1763.42,0.56335
3480,17.0,1764.58,0.567012
3488,17.0391,1771.22,0.568124
3496,17.0781,1770.39,0.568188
3504,17.1172,1788.07,0.571368
3512,17.15625,1787.95,0.569651
3520,17.1953,1789.73,0.572623
3528,17.2344,1785.32,0.574533
3536,17.2734,1806.88,0.574905
3544,17.3125,1803.52,0.576428
3552,17.3516,1799.45,0.576632
3560,17.3906,1814.55,0.579329
3568,17.4297,1824.33,0.580677
3576,17.46875,1819.37,0.581439
3584,17.5078,1825.96,0.58283
3592,17.5469,1830.47,0.58264
3600,17.5859,1843.1,0.58549
3608,17.625,1832.92,0.586138
3616,17.6641,1848.42,0.587003
3624,17.7031,1849,0.588244
3632,17.7422,1862.02,0.590397
3640,17.78125,1852.09,0.590951
3648,17.8203,1863.8,0.593086
3656,17.8594,1862.05,0.59323
3664,17.8984,1875.26,0.594517
3672,17.9375,1870.26,0.596395
3680,17.9766,1884.87,0.598551
3688,18.0156,1883.11,0.600128
3696,18.0547,1892.99,0.599742
3704,18.09375,1892.13,0.6016767
3712,18.1328,1887.62,0.603454
3720,18.1719,1900.75,0.604577
3728,18.2109,1912.82,0.606433
3736,18.25,1907.41,0.608021
3744,18.2891,1908.17,0.607899
3752,18.3281,1928.65,0.6108892
3760,18.3672,1925.74,0.611111
3768,18.40625,1928.2,0.613307
3776,18.4453,1935.91,0.613232
3784,18.4844,1931.21,0.614837
3792,18.5234,1949.08,0.617037
3800,18.5625,1949.77,0.617795
3808,18.6016,1957.73,0.61895
3816,18.6406,1957.84,0.620524
3824,18.6797,1966.52,0.62086
3832,18.71875,1963.79,0.623882
3840,18.7578,1969.22,0.622619
3848,18.7969,1974.25,0.626124
3856,18.8359,1983.02,0.627283
3864,18.875,1989.1,0.627598
3872,18.9141,1989.02,0.629936
3880,18.9531,1990.97,0.632114
3888,18.9922,2005.16,0.631478
3896,19.03125,2010.94,0.633191
3904,19.0703,2007.74,0.6334877
3912,19.1094,2013.56,0.635533
3920,19.1484,2020.98,0.637593
3928,19.1875,2027.18,0.639167
3936,19.2266,2019.89,0.639957
3944,19.2656,2033.7,0.640351
3952,19.3047,2035.37,0.643065
3960,19.34375,2037.45,0.643405
3968,19.3828,2053.73,0.644764
3976,19.4219,2061.37,0.6462729
3984,19.4609,2060.61,0.64858
3992,19.5,2054.41,0.64859
4000,19.5391,2068.5,0.650872
4008,19.5781,2068.22,0.652843
4016,19.6172,2086.08,0.651598
4024,19.65625,2074.35,0.654155
4032,19.6953,2084.55,0.656483
4040,19.7344,2089.9,0.657864
4048,19.7734,2093.77,0.658135
4056,19.8125,2095.43,0.658443
4064,19.8516,2096.78,0.660489
4072,19.8906,2108.19,0.662205
4080,19.9297,2113.59,0.6627202
4088,19.96875,2112.11,0.665148
4096,20.0078,2122.25,0.666761
4104,20.0469,2125.04,0.667859
4112,20.0859,2127.08,0.668896
4120,20.125,2136.39,0.670305
4128,20.1641,2142.55,0.669909
4136,20.2031,2135.87,0.672458
4144,20.2422,2147.78,0.673767
4152,20.28125,2150.21,0.674769
4160,20.3203,2157.61,0.677315
4168,20.3594,2152.22,0.678724
4176,20.3984,2164.26,0.67803
4184,20.4375,2168.51,0.6810987
4192,20.4766,2178.54,0.680898
4200,20.5156,2172.36,0.682136
4208,20.5547,2178.69,0.68332
4216,20.59375,2183.81,0.686721
4224,20.6328,2196.62,0.68696
4232,20.6719,2182.24,0.688026
4240,20.7109,2195.94,0.690787
4248,20.75,2200.46,0.689864
4256,20.7891,2197.48,0.69142
4264,20.8281,2216.49,0.694338
4272,20.8672,2212.92,0.695554
4280,20.90625,2221.39,0.697403
4288,20.9453,2230.09,0.696995
4296,20.9844,2234.8,0.698344
4304,21.0234,2236.26,0.698597
4312,21.0625,2225.09,0.699817
4320,21.1016,2257.58,0.701541
4328,21.1406,2248.22,0.70492
4336,21.1797,2257.02,0.705403
4344,21.21875,2261.99,0.707327
4352,21.2578,2261.29,0.708697
4360,21.2969,2263.77,0.707706
4368,21.3359,2276.79,0.709713
4376,21.375,2277.05,0.710943
4384,21.4141,2274.31,0.713553
4392,21.4531,2292.67,0.71488
4400,21.4922,2282.34,0.715148
4408,21.53125,2296.35,0.717838
4416,21.5703,2293.93,0.718181
4424,21.6094,2297.76,0.721664
4432,21.6484,2302.11,0.720781
4440,21.6875,2314.1,0.721475
4448,21.7266,2313.55,0.721836
4456,21.7656,2319.03,0.723889
4464,21.8047,2324,0.726635
4472,21.84375,2330.6,0.726675
4480,21.8828,2338.7,0.728073
4488,21.9219,2336.97,0.730616
4496,21.9609,2340.96,0.731825
4504,22.0,2348.13,0.733076
4512,22.0391,2346.9,0.732672
4520,22.0781,2360.5,0.735437
4528,22.1172,2378.02,0.7370317
4536,22.15625,2371.96,0.737611
4544,22.1953,2368.17,0.738909
4552,22.2344,2376.17,0.740358
4560,22.2734,2392.41,0.740247
4568,22.3125,2378.58,0.742471
4576,22.3516,2392.92,0.744377
4584,22.3906,2385.15,0.74667
4592,22.4297,2396.25,0.747818
4600,22.46875,2410.91,0.747274
4608,22.5078,2409.4,0.749005
4616,22.5469,2408.93,0.751133
4624,22.5859,2410.74,0.750693
4632,22.625,2415.56,0.753669
4640,22.6641,2420.71,0.753118
4648,22.7031,2432.85,0.756572
4656,22.7422,2437.77,0.758075
4664,22.78125,2426.22,0.758028
4672,22.8203,2447.04,0.75938
4680,22.8594,2456.59,0.761544
4688,22.8984,2445.39,0.762302
4696,22.9375,2446.16,0.7634747
4704,22.9766,2452.13,0.763249
4712,23.0156,2454.97,0.766597
4720,23.0547,2468.2,0.766779
4728,23.09375,2475.99,0.7706666
4736,23.1328,2472.73,0.772036
4744,23.1719,2480.99,0.771554
4752,23.2109,2487.57,0.77233
4760,23.25,2487.82,0.774876
4768,23.2891,2490.99,0.775369
4776,23.3281,2497.05,0.778002
4784,23.3672,2497.49,0.778062
4792,23.40625,2506.96,0.779035
4800,23.4453,2508.31,0.781184
4808,23.4844,2519.64,0.781063
4816,23.5234,2526.39,0.782679
4824,23.5625,2530.02,0.785551
4832,23.6016,2537.04,0.784113
4840,23.6406,2535.32,0.787693
4848,23.6797,2537.99,0.787783
4856,23.71875,2543.49,0.789982
4864,23.7578,2546.11,0.7905221
4872,23.7969,2560.77,0.794145
4880,23.8359,2549.58,0.7945919
4888,23.875,2546.65,0.795465
4896,23.9141,2561.07,0.795786
4904,23.9531,2557.38,0.79776
4912,23.9922,2565.63,0.799409
4920,24.03125,2572.08,0.800875
4928,24.0703,2580.9,0.80079
4936,24.1094,2588.1,0.8035326
4944,24.1484,2584,0.804194
4952,24.1875,2600.29,0.806011
4960,24.2266,2597.94,0.806293
4968,24.2656,2584.29,0.806569
4976,24.3047,2615.23,0.809015
4984,24.34375,2614.41,0.8109498
4992,24.3828,2614.79,0.812066
5000,24.4219,2622.09,0.81326
5008,24.4609,2616.71,0.813185
5016,24.5,2633.09,0.81586
5024,24.5391,2640.5,0.818378
5032,24.5781,2635.02,0.818024
5040,24.6172,2637.08,0.819515
5048,24.65625,2636.38,0.821897
5056,24.6953,2649.9,0.821478
5064,24.7344,2655,0.82248
5072,24.7734,2660.73,0.825727
5080,24.8125,2662.61,0.826439
5088,24.8516,2668.73,0.827419
5096,24.8906,2666.85,0.830398
5104,24.9297,2670.43,0.829639
5112,24.96875,2674.71,0.831467
5120,25.0078,2691,0.833699
5128,25.0469,2684.56,0.833148
5136,25.0859,2681.31,0.836298
5144,25.125,2697.48,0.837046
5152,25.1641,2694.42,0.838112
5160,25.2031,2702.5,0.840268
5168,25.2422,2712.73,0.840926
5176,25.28125,2721.34,0.842739
5184,25.3203,2716.53,0.843544
5192,25.3594,2726.25,0.844059
5200,25.3984,2717.12,0.846198
5208,25.4375,2716.54,0.846598
5216,25.4766,2739.46,0.84776
5224,25.5156,2742.64,0.850954
5232,25.5547,2733.44,0.85109
5240,25.59375,2744.03,0.853204
5248,25.6328,2755.9,0.855006
5256,25.6719,2758.92,0.856558
5264,25.7109,2764.68,0.857105
5272,25.75,2754.94,0.856658
5280,25.7891,2775.97,0.859905
5288,25.8281,2776.84,0.860474
5296,25.8672,2765.84,0.860685
5304,25.90625,2790.58,0.863621
5312,25.9453,2790.09,0.862949
5320,25.9844,2789.88,0.865238
5328,26.0234,2794.97,0.868953
5336,26.0625,2806.71,0.8677125
5344,26.1016,2807.19,0.869168
5352,26.1406,2807.98,0.870631
5360,26.1797,2804.32,0.870745
5368,26.21875,2819.06,0.874107
5376,26.2578,2825.54,0.87494
5384,26.2969,2820.02,0.875863
5392,26.3359,2820.95,0.877819
5400,26.375,2834.19,0.877976
5408,26.4141,2839.88,0.881059
5416,26.4531,2838.88,0.881563
5424,26.4922,2846.6,0.8814168
5432,26.53125,2845.34,0.88352
5440,26.5703,2853.98,0.883942
5448,26.6094,2865.03,0.887489
5456,26.6484,2861.63,0.88828
5464,26.6875,2864.98,0.88799
5472,26.7266,2870.84,0.889653
5480,26.7656,2879.1,0.890815
5488,26.8047,2888.11,0.893826
5496,26.84375,2890.85,0.893769
5504,26.8828,2897.97,0.895389
5512,26.9219,2906.6,0.897964
5520,26.9609,2891.47,0.898819
5528,27.0,2905.17,0.900067
5536,27.0391,2895.52,0.90094
5544,27.0781,2902.38,0.901701
5552,27.1172,2913.05,0.903769
5560,27.15625,2921.93,0.904727
5568,27.1953,2929.25,0.906533
5576,27.2344,2929.78,0.907609
5584,27.2734,2927.21,0.908929
5592,27.3125,2941,0.909741
5600,27.3516,2943.43,0.911143
5608,27.3906,2951.64,0.913374
5616,27.4297,2947.5,0.91537
5624,27.46875,2951.15,0.9158957
5632,27.5078,2977.68,0.9157598
5640,27.5469,2963.54,0.917205
5648,27.5859,2961.61,0.918885
5656,27.625,2971.6,0.921246
5664,27.6641,2982.33,0.920749
5672,27.7031,2976.16,0.923703
5680,27.7422,2994.45,0.924783
5688,27.78125,2983.77,0.925841
5696,27.8203,2992.79,0.925834
5704,27.8594,2998.86,0.926861
5712,27.8984,2998.57,0.928127
5720,27.9375,2998.14,0.932461
5728,27.9766,3007.63,0.931417
5736,28.0156,3020.65,0.933398
5744,28.0547,3012.22,0.934968
5752,28.09375,3019.07,0.936245
5760,28.1328,3020.47,0.937082
5768,28.1719,3032.99,0.936921
5776,28.2109,3037.56,0.940465
5784,28.25,3024.76,0.939238
5792,28.2891,3040.76,0.942042
5800,28.3281,3044.31,0.944642
5808,28.3672,3043.03,0.943197
5816,28.40625,3057.56,0.9460187
5824,28.4453,3052.3,0.946305
5832,28.4844,3066.06,0.9483
5840,28.5234,3069.23,0.950042
5848,28.5625,3061.73,0.951726
5856,28.6016,3073.78,0.952699
5864,28.6406,3083.51,0.953068
5872,28.6797,3086,0.955056
5880,28.71875,3089.78,0.956004
5888,28.7578,3096.86,0.957316
5896,28.7969,3089.96,0.959802
5904,28.8359,3095.32,0.960406
5912,28.875,3098.54,0.96125
5920,28.9141,3108.91,0.964215
5928,28.9531,3112.09,0.964347
5936,28.9922,3113.83,0.964211
5944,29.03125,3113.43,0.966682
5952,29.0703,3124.89,0.968803
5960,29.1094,3124.95,0.970534
5968,29.1484,3136.45,0.970191
5976,29.1875,3149.11,0.971385
5984,29.2266,3147.12,0.973531
5992,29.2656,3138.22,0.974368
6000,29.3047,3157.75,0.976217
6008,29.34375,3153.33,0.976067
6016,29.3828,3160.06,0.97906
6024,29.4219,3163.22,0.980244
6032,29.4609,3170.24,0.980108
6040,29.5,3174.98,0.982343
6048,29.5391,3182.61,0.983895
6056,29.5781,3186.65,0.985043
6064,29.6172,3185.72,0.986048
6072,29.65625,3184.11,0.986406
6080,29.6953,3196,0.989363
6088,29.7344,3199.02,0.989867
6096,29.7734,3201.16,0.991577
6104,29.8125,3203.22,0.99261
6112,29.8516,3215.7,0.994066
6120,29.8906,3220.64,0.995057
6128,29.9297,3216.43,0.998003
6136,29.96875,3222.52,0.997943
6144,30.0078,3225.17,1.00105
6152,30.0469,3231.41,0.999641
6160,30.0859,3225.99,1.002084
6168,30.125,3238.79,1.00451
6176,30.1641,3249.99,1.005528
6184,30.2031,3247.22,1.00693
6192,30.2422,3248.46,1.00648
6200,30.28125,3256.28,1.00905
6208,30.3203,3268.12,1.00929
6216,30.3594,3264.25,1.01129
6224,30.3984,3267.57,1.01287
6232,30.4375,3262.37,1.01408
6240,30.4766,3276.33,1.0157
6248,30.5156,3287.91,1.01721
6256,30.5547,3288.85,1.017487
6264,30.59375,3294.15,1.02042
6272,30.6328,3284.55,1.02039
6280,30.6719,3296.63,1.02119
6288,30.7109,3300.01,1.02282
6296,30.75,3299.75,1.02404
6304,30.7891,3308.58,1.02537
6312,30.8281,3316.79,1.02697
6320,30.8672,3313.49,1.028
6328,30.90625,3326.54,1.0315
6336,30.9453,3337.02,1.03083
6344,30.9844,3323.95,1.031971
6352,31.0234,3336.74,1.03212
6360,31.0625,3333.5,1.03435
6368,31.1016,3344.28,1.0365
6376,31.1406,3352.23,1.03681
6384,31.1797,3344.97,1.03732
6392,31.21875,3361.41,1.03952
6400,31.2578,3364.81,1.03993
6408,31.2969,3353.65,1.04324
6416,31.3359,3374.23,1.04324
6424,31.375,3362.02,1.044935
6432,31.4141,3370.06,1.04621
6440,31.4531,3378.3,1.04774
6448,31.4922,3380.4,1.04942
6456,31.53125,3382.67,1.05088
6464,31.5703,3392.09,1.05137
6472,31.6094,3389.2,1.05271
6480,31.6484,3402.05,1.05461
6488,31.6875,3409.32,1.05471
6496,31.7266,3409.09,1.0576
6504,31.7656,3410.48,1.058
6512,31.8047,3417.71,1.05903
6520,31.84375,3426.98,1.06113
6528,31.8828,3429.14,1.06266
6536,31.9219,3428.45,1.06279
6544,31.9609,3428.09,1.06458
6552,32.0,3444.08,1.06693
6560,32.0391,3440.87,1.06754
6568,32.0781,3432.53,1.07035
6576,32.1172,3453.69,1.07112
6584,32.15625,3460.34,1.07067
6592,32.1953,3467.68,1.07185
6600,32.2344,3467.14,1.07484
6608,32.2734,3465.82,1.07496
6616,32.3125,3471.71,1.076467
6624,32.3516,3464.51,1.07649
6632,32.3906,3474.19,1.07994
6640,32.4297,3490.4,1.08273
6648,32.46875,3482.3,1.0819
6656,32.5078,3497.52,1.08418
6664,32.5469,3498.03,1.08418
6672,32.5859,3498.1,1.08526
6680,32.625,3503.31,1.08597
6688,32.6641,3515.55,1.0893
6696,32.7031,3524.28,1.089474
6704,32.7422,3529.29,1.0901
6712,32.78125,3522.27,1.09153
6720,32.8203,3519.56,1.09195
6728,32.8594,3530.78,1.09434
6736,32.8984,3532.91,1.09517
6744,32.9375,3538.09,1.09689
6752,32.9766,3545.57,1.09784
6760,33.0156,3544.66,1.100682
6768,33.0547,3545.55,1.1013
6776,33.09375,3557.17,1.10342
6784,33.1328,3559.14,1.10432
6792,33.1719,3567.86,1.10554
6800,33.2109,3562.81,1.10599
6808,33.25,3566.56,1.10795
6816,33.2891,3567.62,1.11011
6824,33.3281,3581.07,1.11068
6832,33.3672,3574.83,1.11238
6840,33.40625,3592.32,1.11296
6848,33.4453,3591.39,1.11454
6856,33.4844,3594.14,1.11597
6864,33.5234,3614.01,1.11873
6872,33.5625,3591.86,1.11883
6880,33.6016,3613.55,1.12021
6888,33.6406,3617.87,1.119529
6896,33.6797,3614.42,1.12172
6904,33.71875,3615.97,1.12403
6912,33.7578,3620.75,1.12484
6920,33.7969,3615.67,1.12601
6928,33.8359,3634.13,1.12829
6936,33.875,3625.11,1.12869
6944,33.9141,3638.33,1.12945
6952,33.9531,3639,1.12984
6960,33.9922,3646.78,1.133709
6968,34.03125,3645.81,1.13434
6976,34.0703,3654.02,1.13435
6984,34.1094,3658.35,1.13568
6992,34.1484,3659.35,1.13596
7000,34.1875,3670.21,1.13858
7008,34.2266,3668.23,1.1405
7016,34.2656,3676.2,1.14101
7024,34.3047,3683.38,1.14358
7032,34.34375,3686.27,1.14362
7040,34.3828,3689.13,1.14599
7048,34.4219,3687,1.14722
7056,34.4609,3700.14,1.14753
7064,34.5,3704.39,1.14947
7072,34.5391,3705.84,1.15036
7080,34.5781,3710.86,1.15177
7088,34.6172,3725.78,1.153686
7096,34.65625,3721.49,1.15363
7104,34.6953,3716.4,1.15575
7112,34.7344,3713.97,1.15791
7120,34.7734,3728.53,1.1574
7128,34.8125,3726.63,1.15918
7136,34.8516,3742.29,1.16073
7144,34.8906,3742.91,1.16226
7152,34.9297,3743.16,1.1636
7160,34.96875,3761.74,1.16489
7168,35.0078,3739.98,1.16583
7176,35.0469,3764.04,1.16863
7184,35.0859,3754.39,1.16879
7192,35.125,3758.7,1.17031
7200,35.1641,3763.63,1.17096
7208,35.2031,3773.83,1.1734
7216,35.2422,3780.32,1.17408
7224,35.28125,3779.39,1.17581
7232,35.3203,3783.61,1.17788
7240,35.3594,3792.84,1.17767
7248,35.3984,3793.38,1.17912
7256,35.4375,3793.9,1.18069
7264,35.4766,3800.98,1.18138
7272,35.5156,3809.87,1.183151
7280,35.5547,3802.53,1.18455
7288,35.59375,3809.74,1.18523
7296,35.6328,3813.18,1.18555
7304,35.6719,3824.17,1.18841
7312,35.7109,3828.7,1.18977
7320,35.75,3822.61,1.19055
7328,35.7891,3836.5,1.19224
7336,35.8281,3836.41,1.19307
7344,35.8672,3835.89,1.19325
7352,35.90625,3842.68,1.19694
7360,35.9453,3845.32,1.19787
7368,35.9844,3857.4,1.19942
7376,36.0234,3871.5,1.20077
7384,36.0625,3865.73,1.20188
7392,36.1016,3863.03,1.20251
7400,36.1406,3870.94,1.20361
7408,36.1797,3877.44,1.20518
7416,36.21875,3874.34,1.20699
7424,36.2578,3872.82,1.20752
7432,36.2969,3890.98,1.21027
7440,36.3359,3897.61,1.21052
7448,36.375,3886.71,1.21031
7456,36.4141,3891.95,1.21318
7464,36.4531,3893.52,1.21345
7472,36.4922,3906.39,1.21673
7480,36.53125,3907.93,1.21737
7488,36.5703,3918.01,1.21809
7496,36.6094,3917.34,1.21959
7504,36.6484,3915.99,1.22072
7512,36.6875,3931.38,1.22349
7520,36.7266,3926.93,1.2244
7528,36.7656,3937.19,1.22424
7536,36.8047,3936.33,1.22706
7544,36.84375,3943.27,1.22625
7552,36.8828,3955.92,1.22836
7560,36.9219,3951.7,1.23097
7568,36.9609,3940.61,1.2307
7576,37.0,3960.35,1.23254
7584,37.0391,3955.07,1.23474
7592,37.0781,3980.01,1.23671
7600,37.1172,3960.83,1.2366
7608,37.15625,3963.27,1.2366
7616,37.1953,3974.25,1.23899
7624,37.2344,3980.97,1.24092
7632,37.2734,3978.14,1.24133
7640,37.3125,3986.71,1.24315
7648,37.3516,3993.05,1.24476
7656,37.3906,3997.35,1.24502
7664,37.4297,3999.27,1.24717
7672,37.46875,4010.09,1.24851
7680,37.5078,4000.33,1.25066
7688,37.5469,4005.77,1.251111
7696,37.5859,4017.42,1.251955
7704,37.625,4018.79,1.25256
7712,37.6641,4027.15,1.25442
7720,37.7031,4015.73,1.25608
7728,37.7422,4033.94,1.25508
7736,37.78125,4033,1.25841
7744,37.8203,4045.98,1.2606
7752,37.8594,4039.76,1.26106
7760,37.8984,4045.86,1.26253
7768,37.9375,4052.55,1.26436
7776,37.9766,4054.7,1.26434
7784,38.0156,4065.6,1.267004
7792,38.0547,4066.9,1.2677
7800,38.09375,4062.41,1.26892
7808,38.1328,4071.35,1.27069
7816,38.1719,4074.82,1.27167
7824,38.2109,4091.59,1.27415
7832,38.25,4075.43,1.27326
7840,38.2891,4077.55,1.27687
7848,38.3281,4087.41,1.27645
7856,38.3672,4094.85,1.27896
7864,38.40625,4088.71,1.28014
7872,38.4453,4097.51,1.27953
7880,38.4844,4110.54,1.28106
7888,38.5234,4104.37,1.28301
7896,38.5625,4114.48,1.28499
7904,38.6016,4117.99,1.28616
7912,38.6406,4126.91,1.28696
7920,38.6797,4119.51,1.28819
7928,38.71875,4130.92,1.29061
7936,38.7578,4127.57,1.2902
7944,38.7969,4140.57,1.29203
7952,38.8359,4141.1,1.29405
7960,38.875,4140.74,1.29348
7968,38.9141,4154.2,1.29637
7976,38.9531,4144.75,1.29717
7984,38.9922,4154.81,1.299752
7992,39.03125,4158.2,1.29927
8000,39.0703,4169.92,1.30101
8008,39.1094,4166.93,1.30339
8016,39.1484,4169.96,1.30388
8024,39.1875,4184.83,1.30655
8032,39.2266,4180.77,1.30749
8040,39.2656,4174.94,1.30818
8048,39.3047,4191.82,1.311121
8056,39.34375,4193.79,1.31091
8064,39.3828,4201.9,1.31312
8072,39.4219,4202.22,1.31346
8080,39.4609,4206.13,1.31333
8088,39.5,4214.09,1.31523
8096,39.5391,4209.57,1.31774
8104,39.5781,4219.79,1.31747
8112,39.6172,4220.19,1.320641
8120,39.65625,4214.76,1.32181
8128,39.6953,4234.86,1.32194
8136,39.7344,4229.12,1.32508
8144,39.7734,4234.42,1.32451
8152,39.8125,4240.66,1.3264
8160,39.8516,4244.64,1.32871
8168,39.8906,4237.44,1.32996
8176,39.9297,4247.38,1.32976
8184,39.96875,4257.65,1.33118
8192,40.0078,4262.05,1.33217
8200,40.0469,4269.92,1.33508
8208,40.0859,4267.07,1.33509
8216,40.125,4266.92,1.33759
8224,40.1641,4273.18,1.33713
8232,40.2031,4277.62,1.34063
8240,40.2422,4281.43,1.34013
8248,40.28125,4281.68,1.34104
8256,40.3203,4287.7,1.34374
8264,40.3594,4289.39,1.34442
8272,40.3984,4290.87,1.34599
8280,40.4375,4294.34,1.34875
8288,40.4766,4297.46,1.34782
8296,40.5156,4305.66,1.35075
8304,40.5547,4311.75,1.34984
8312,40.59375,4319.1,1.35267
8320,40.6328,4306.79,1.3542
8328,40.6719,4314.49,1.35444
8336,40.7109,4331.01,1.357
8344,40.75,4330,1.35744
8352,40.7891,4333.87,1.35924
8360,40.8281,4337.09,1.36051
8368,40.8672,4337.43,1.36155
8376,40.90625,4340.53,1.3631
8384,40.9453,4346.37,1.36454
8392,40.9844,4345.49,1.36476
8400,41.0234,4362.91,1.36775
8408,41.0625,4362.56,1.36817
8416,41.1016,4372.75,1.37038
8424,41.1406,4369.13,1.36981
8432,41.1797,4372.27,1.37183
8440,41.21875,4382.21,1.373
8448,41.2578,4376.96,1.37413
8456,41.2969,4383.15,1.37539
8464,41.3359,4395.97,1.37669
8472,41.375,4383.94,1.37774
8480,41.4141,4394.82,1.37989
8488,41.4531,4397.83,1.38138
8496,41.4922,4406.29,1.38272
8504,41.53125,4411.62,1.385268
8512,41.5703,4415.71,1.38551
8520,41.6094,4409.27,1.38585
8528,41.6484,4411.42,1.38768
8536,41.6875,4433.5,1.38849
8544,41.7266,4438.16,1.39021
8552,41.7656,4426.2,1.391319
8560,41.8047,4438.35,1.39207
8568,41.84375,4438.02,1.39392
8576,41.8828,4445.67,1.3948
8584,41.9219,4461.81,1.39835
8592,41.9609,4437.34,1.39791
8600,42.0,4452.17,1.39933
8608,42.0391,4446.56,1.40006
8616,42.0781,4456.75,1.40287
8624,42.1172,4460.65,1.40465
8632,42.15625,4459.61,1.40367
8640,42.1953,4471.79,1.4063
8648,42.2344,4481.54,1.40717
8656,42.2734,4475.57,1.40868
8664,42.3125,4477.07,1.41102
8672,42.3516,4487.95,1.41153
8680,42.3906,4490.2,1.41039
8688,42.4297,4491.76,1.41361
8696,42.46875,4497.92,1.41487
8704,42.5078,4494.13,1.41595
8712,42.5469,4498.71,1.41829
8720,42.5859,4500.82,1.41904
8728,42.625,4507.69,1.42035
8736,42.6641,4517.61,1.42135
8744,42.7031,4518.09,1.42399
8752,42.7422,4525.87,1.42265
8760,42.78125,4523.12,1.4259
8768,42.8203,4527,1.42686
8776,42.8594,4540.46,1.42824
8784,42.8984,4536.58,1.4289
8792,42.9375,4547.09,1.43147
8800,42.9766,4539.68,1.43171
8808,43.0156,4558.28,1.43271
8816,43.0547,4547.82,1.434
8824,43.09375,4560.38,1.4365
8832,43.1328,4554.14,1.43763
8840,43.1719,4564.12,1.43795
8848,43.2109,4569.68,1.43957
8856,43.25,4569.49,1.441319
8864,43.2891,4577.5,1.44231
8872,43.3281,4579.91,1.44424
8880,43.3672,4581.09,1.44329
8888,43.40625,4594.13,1.44682
8896,43.4453,4590.22,1.44723
8904,43.4844,4581.52,1.4477
8912,43.5234,4603.18,1.44953
8920,43.5625,4604.05,1.44973
8928,43.6016,4611.68,1.45297
8936,43.6406,4604.41,1.45529
8944,43.6797,4612.91,1.45618
8952,43.71875,4618.22,1.45592
8960,43.7578,4617.16,1.45744
8968,43.7969,4624.92,1.45878
8976,43.8359,4627.78,1.461457
8984,43.875,4622,1.46115
8992,43.9141,4633.95,1.46424
9000,43.9531,4641.16,1.46469
9008,43.9922,4644.37,1.4661
9016,44.03125,4645.1,1.46748
9024,44.0703,4649.96,1.468724
9032,44.1094,4658.58,1.47033
9040,44.1484,4657.26,1.47053
9048,44.1875,4671.2,1.47344
9056,44.2266,4655.48,1.47389
9064,44.2656,4659.59,1.47293
9072,44.3047,4674.19,1.47618
9080,44.34375,4687.72,1.47853
9088,44.3828,4683.09,1.47907
9096,44.4219,4691.15,1.48059
9104,44.4609,4683.88,1.48113
9112,44.5,4693.81,1.48353
9120,44.5391,4702.04,1.48484
9128,44.5781,4698.26,1.48446
9136,44.6172,4707.66,1.48704
9144,44.65625,4700.03,1.48686
9152,44.6953,4718.82,1.48897
9160,44.7344,4713.82,1.49146
9168,44.7734,4718.02,1.49271
9176,44.8125,4719.87,1.49414
9184,44.8516,4725.32,1.49409
9192,44.8906,4721.94,1.49578
9200,44.9297,4732.41,1.497817
9208,44.96875,4734.4,1.49831
9216,45.0078,4741.86,1.50028
9224,45.0469,4744.57,1.50183
9232,45.0859,4745.23,1.50306
9240,45.125,4753.17,1.50463
9248,45.1641,4761.38,1.50448
9256,45.2031,4768.94,1.50624
9264,45.2422,4765.71,1.50766
9272,45.28125,4767.29,1.5104
9280,45.3203,4776.45,1.51101
9288,45.3594,4771.32,1.51062
9296,45.3984,4768.56,1.51029
9304,45.4375,4786.36,1.514858
9312,45.4766,4789.6,1.5146
9320,45.5156,4789.27,1.51789
9328,45.5547,4786.16,1.51865
9336,45.59375,4802.11,1.51952
9344,45.6328,4801.35,1.52058
9352,45.6719,4805.33,1.521095
9360,45.7109,4815.95,1.52378
9368,45.75,4804.35,1.52493
9376,45.7891,4818.09,1.52614
9384,45.8281,4812.79,1.52758
9392,45.8672,4815.92,1.52786
9400,45.90625,4831.94,1.5291
9408,45.9453,4824.4,1.53162
9416,45.9844,4824.03,1.5308
9424,46.0234,4842.7,1.53426
9432,46.0625,4834.04,1.53439
9440,46.1016,4839.3,1.53696
9448,46.1406,4844.53,1.53705
9456,46.1797,4847.69,1.53886
9464,46.21875,4858.43,1.54209
9472,46.2578,4858.36,1.54176
9480,46.2969,4860.67,1.542238
9488,46.3359,4870.63,1.54434
9496,46.375,4875.22,1.54337
9504,46.4141,4863.38,1.54678
9512,46.4531,4876.56,1.54985
9520,46.4922,4878.5,1.54985
9528,46.53125,4887.98,1.55107
9536,46.5703,4885.91,1.5509
9544,46.6094,4888.03,1.55281
9552,46.6484,4886.46,1.55353
9560,46.6875,4893.02,1.55409
9568,46.7266,4911.17,1.55753
9576,46.7656,4909.31,1.55604
9584,46.8047,4917.53,1.55992
9592,46.84375,4916.12,1.55997
9600,46.8828,4925.25,1.56119
9608,46.9219,4934.59,1.56317
9616,46.9609,4915.01,1.56469
9624,47.0,4923.64,1.56605
9632,47.0391,4940,1.56723
9640,47.0781,4943.32,1.56811
9648,47.1172,4935.22,1.569078
9656,47.15625,4944.77,1.57115
9664,47.1953,4949.33,1.5722
9672,47.2344,4950.84,1.57334
9680,47.2734,4942.98,1.57513
9688,47.3125,4955.9,1.57663
9696,47.3516,4953.85,1.57713
9704,47.3906,4964.8,1.578
9712,47.4297,4971.9,1.57899
9720,47.46875,4975.86,1.58119
9728,47.5078,4969.69,1.5839
9736,47.5469,4987.02,1.58408
9744,47.5859,4986.46,1.58492
9752,47.625,4989.36,1.58818
9760,47.6641,4994.55,1.58744
9768,47.7031,4996.91,1.59014
9776,47.7422,5001.65,1.59006
9784,47.78125,5003.48,1.59201
9792,47.8203,5007.43,1.59442
9800,47.8594,5008.83,1.59389
9808,47.8984,5019.78,1.5961
9816,47.9375,5013.47,1.59746
9824,47.9766,5022.97,1.59825
9832,48.0156,5018.91,1.60029
9840,48.0547,5027.83,1.60054
9848,48.09375,5028.33,1.602155
9856,48.1328,5037.02,1.60379
9864,48.1719,5043.08,1.60501
9872,48.2109,5045.86,1.60762
9880,48.25,5042.93,1.60881
9888,48.2891,5046.59,1.60935
9896,48.3281,5051.78,1.61101
9904,48.3672,5054.52,1.6111
9912,48.40625,5057.07,1.612823
9920,48.4453,5067.94,1.61488
9928,48.4844,5069.48,1.61626
9936,48.5234,5084.14,1.61826
9944,48.5625,5079.12,1.61862
9952,48.6016,5086.3,1.61967
9960,48.6406,5090.92,1.62062
9968,48.6797,5088.06,1.62193
9976,48.71875,5091.05,1.62338
9984,48.7578,5097.16,1.62417
9992,48.7969,5095.31,1.62559
10000,48.8359,5104.57,1.62935
10008,48.875,5112,1.62873
10016,48.9141,5106.39,1.63046
10024,48.9531,5117.24,1.63181
10032,48.9922,5108.83,1.633
10040,49.03125,5105.95,1.63439
10048,49.0703,5115.69,1.63516
10056,49.1094,5120.16,1.63761
10064,49.1484,5127.47,1.63852
10072,49.1875,5139.63,1.63861
10080,49.2266,5138.64,1.638912
10088,49.2656,5136.92,1.64179
10096,49.3047,5135.3,1.64378
10104,49.34375,5131.71,1.64346
10112,49.3828,5152.39,1.64506
10120,49.4219,5152.44,1.64818
10128,49.4609,5144.67,1.647402
10136,49.5,5171.5,1.65043
10144,49.5391,5162.78,1.65044
10152,49.5781,5171.73,1.65239
10160,49.6172,5164.85,1.65322
10168,49.65625,5170.57,1.65386
10176,49.6953,5171.75,1.65607
10184,49.7344,5191.09,1.65643
10192,49.7734,5180.36,1.65844
10200,49.8125,5191.66,1.65981
10208,49.8516,5199.02,1.66243
10216,49.8906,5184.51,1.66312
10224,49.9297,5202.91,1.66429
10232,49.96875,5190.23,1.66549
10240,50.0078,5194.15,1.66698
10248,50.0469,5204.32,1.66802
10256,50.0859,5214.03,1.66884
10264,50.125,5210.62,1.66987
10272,50.1641,5229.55,1.67083
10280,50.2031,5214.71,1.67273
10288,50.2422,5231.08,1.674453
10296,50.28125,5233.68,1.6759
10304,50.3203,5237.08,1.6759
10312,50.3594,5237.22,1.67684
10320,50.3984,5244.33,1.67913
10328,50.4375,5245.04,1.68195
10336,50.4766,5243.04,1.68181
10344,50.5156,5248.72,1.68399
10352,50.5547,5254,1.68529
10360,50.59375,5259.21,1.68594
10368,50.6328,5269.71,1.68708
10376,50.6719,5275.57,1.68863
10384,50.7109,5266.78,1.69033
10392,50.75,5279.79,1.69094
10400,50.7891,5274.09,1.69053
10408,50.8281,5273.86,1.69408
10416,50.8672,5282.86,1.69336
10424,50.90625,5296.42,1.69734
10432,50.9453,5287.13,1.69727
10440,50.9844,5297.38,1.69788
10448,51.0234,5307.6,1.69991
10456,51.0625,5294.59,1.70109
10464,51.1016,5297.61,1.70368
10472,51.1406,5316.06,1.70388
10480,51.1797,5319.26,1.70517
10488,51.21875,5317.64,1.7081
10496,51.2578,5329.81,1.70698
10504,51.2969,5324.99,1.70989
10512,51.3359,5321.08,1.70987
10520,51.375,5322.64,1.71222
10528,51.4141,5333.34,1.71367
10536,51.4531,5343.43,1.71472
10544,51.4922,5325.92,1.71398
10552,51.53125,5353.08,1.71737
10560,51.5703,5345.92,1.71728
10568,51.6094,5352.31,1.71958
10576,51.6484,5352.53,1.721946
10584,51.6875,5366.59,1.72159
10592,51.7266,5360.75,1.72334
10600,51.7656,5352.38,1.72391
10608,51.8047,5367.55,1.72749
10616,51.84375,5371.59,1.72764
10624,51.8828,5376.87,1.72928
10632,51.9219,5375.81,1.73086
10640,51.9609,5389.66,1.73217
10648,52.0,5386.95,1.73246
10656,52.0391,5387.41,1.73408
10664,52.0781,5391.61,1.735096
10672,52.1172,5396.56,1.73553
10680,52.15625,5398.24,1.73841
10688,52.1953,5400.13,1.73995
10696,52.2344,5407.48,1.73938
10704,52.2734,5398.94,1.74064
10712,52.3125,5415.78,1.74396
10720,52.3516,5416.52,1.74293
10728,52.3906,5416.55,1.7459
10736,52.4297,5427.44,1.74655
10744,52.46875,5420.77,1.74816
10752,52.5078,5427.78,1.74984
10760,52.5469,5433.08,1.74979
10768,52.5859,5435.14,1.75409
10776,52.625,5438.01,1.75322
10784,52.6641,5451.8,1.75538
10792,52.7031,5459.24,1.75651
10800,52.7422,5448.2,1.75832
10808,52.78125,5460.57,1.75807
10816,52.8203,5457.77,1.75946
10824,52.8594,5452.64,1.760205
10832,52.8984,5462.21,1.76333
10840,52.9375,5472.43,1.76459
10848,52.9766,5479.07,1.76492
10856,53.0156,5464.54,1.76755
10864,53.0547,5488.69,1.76724
10872,53.09375,5486.7,1.76882
10880,53.1328,5481.12,1.77197
10888,53.1719,5480.9,1.77323
10896,53.2109,5484.48,1.77413
10904,53.25,5496.13,1.77442
10912,53.2891,5506.06,1.77657
10920,53.3281,5496.43,1.77665
10928,53.3672,5501.03,1.77848
10936,53.40625,5510.73,1.77904
10944,53.4453,5514.68,1.78166
10952,53.4844,5521.07,1.78249
10960,53.5234,5518.59,1.78314
10968,53.5625,5523.22,1.7847
10976,53.6016,5526.91,1.78655
10984,53.6406,5527.17,1.78766
10992,53.6797,5537.37,1.78963
11000,53.71875,5541.7,1.78895
11008,53.7578,5538.89,1.79015
11016,53.7969,5552.79,1.79378
11024,53.8359,5547.11,1.79423
11032,53.875,5561.2,1.79602
11040,53.9141,5552.3,1.7964
11048,53.9531,5557.14,1.799
11056,53.9922,5565.48,1.7985
11064,54.03125,5561.88,1.8014
11072,54.0703,5563.86,1.80165
11080,54.1094,5575.18,1.80336
11088,54.1484,5572.79,1.8035
11096,54.1875,5573.94,1.806314
11104,54.2266,5586.25,1.80685
11112,54.2656,5584.23,1.80838
11120,54.3047,5587.76,1.81021
11128,54.34375,5588.06,1.81173
11136,54.3828,5592.68,1.81091
11144,54.4219,5603.8,1.81498
11152,54.4609,5600.02,1.8142
11160,54.5,5607.5,1.81568
11168,54.5391,5612.57,1.81662
11176,54.5781,5607.72,1.81748
11184,54.6172,5618.77,1.82173
11192,54.65625,5606.95,1.82143
11200,54.6953,5615.15,1.82259
11208,54.7344,5617.73,1.82335
11216,54.7734,5625.59,1.82688
11224,54.8125,5628.03,1.827718
11232,54.8516,5622.7,1.82707
11240,54.8906,5630.68,1.82714
11248,54.9297,5646.16,1.82986
11256,54.96875,5641.18,1.83176
11264,55.0078,5644.45,1.83235
11272,55.0469,5650.04,1.83419
11280,55.0859,5657.78,1.83576
11288,55.125,5660.68,1.83681
11296,55.1641,5663.89,1.83835
11304,55.2031,5671.86,1.83893
11312,55.2422,5676.94,1.84115
11320,55.28125,5667.69,1.84075
11328,55.3203,5668.75,1.84423
11336,55.3594,5672,1.84583
11344,55.3984,5681.5,1.84647
11352,55.4375,5685.2,1.84585
11360,55.4766,5696.92,1.84871
11368,55.5156,5686.08,1.84949
11376,55.5547,5678.28,1.85145
11384,55.59375,5700.99,1.85313
11392,55.6328,5703.83,1.8533
11400,55.6719,5702.35,1.85379
11408,55.7109,5707.92,1.85779
11416,55.75,5708.29,1.85928
11424,55.7891,5716.42,1.85816
11432,55.8281,5722.63,1.86056
11440,55.8672,5715.56,1.86234
11448,55.90625,5717.66,1.86384
11456,55.9453,5731.15,1.86419
11464,55.9844,5727.76,1.86618
11472,56.0234,5738.18,1.8677
11480,56.0625,5748.02,1.86779
11488,56.1016,5743.47,1.87058
11496,56.1406,5748.01,1.87144
11504,56.1797,5744.76,1.87289
11512,56.21875,5743.37,1.87201
11520,56.2578,5758.68,1.87472
11528,56.2969,5762.63,1.87709
11536,56.3359,5765.59,1.87815
11544,56.375,5762.83,1.87801
11552,56.4141,5771.24,1.87977
11560,56.4531,5775.17,1.87921
11568,56.4922,5782.21,1.88392
11576,56.53125,5779.39,1.885
11584,56.5703,5772.55,1.88383
11592,56.6094,5783.3,1.88665
11600,56.6484,5799.49,1.88876
11608,56.6875,5795.79,1.88876
11616,56.7266,5786.85,1.89037
11624,56.7656,5814,1.8927
11632,56.8047,5794.81,1.89379
11640,56.84375,5799.06,1.89504
11648,56.8828,5816.26,1.8952
11656,56.9219,5813.51,1.89497
11664,56.9609,5823.31,1.89793
11672,57.0,5817.2,1.9007
11680,57.0391,5821.18,1.90095
11688,57.0781,5824.46,1.90191
11696,57.1172,5825.3,1.90397
11704,57.15625,5829.38,1.90443
11712,57.1953,5837.56,1.905992
11720,57.2344,5849.44,1.90806
11728,57.2734,5845.76,1.9088
11736,57.3125,5840.47,1.90997
11744,57.3516,5843.73,1.91036
11751,57.3857,1484.39,1.9124