File: ASM109_2021_data/MTS/90/MTS_90_4.csv
,Time [s],Load [N],Displacement [mm]
0,0.00683594,-395.886,0.00180602
8,0.0458984,-395.457,-0.00106215
16,0.0849609,-368.519,0.00149488
24,0.124023,-364.756,0.0039947
32,0.163086,-362.901,0.005146265
40,0.202148,-365.24,0.00636935
48,0.241211,-355.422,0.00687003
56,0.280273,-338.867,0.0105107
64,0.319336,-357.553,0.0101602
72,0.358398,-341.045,0.0101459
80,0.397461,-322.226,0.0122488
88,0.436523,-328.005,0.013926
96,0.475586,-307.84,0.01465559
104,0.514648,-313.602,0.0172806
112,0.553711,-309.971,0.0192797
120,0.592773,-301.747,0.0195158
128,0.631836,-308.469,0.0191224
136,0.670898,-279.557,0.0210428
144,0.709961,-273.825,0.0235212
152,0.749023,-268.625,0.0259531
160,0.788086,-267.168,0.0257528
168,0.827148,-262.265,0.0261533
176,0.866211,-249.629,0.0288355
184,0.905273,-256.338,0.0271761
192,0.944336,-239.819,0.0299156
200,0.983398,-241.164,0.0334311
208,1.02246,-235.328,0.0332165
216,1.06152,-224.989,0.0354481
224,1.10059,-217.434,0.035398
232,1.13965,-210.657,0.0379944
240,1.17871,-222.183,0.0384486
248,1.21777,-213.229,0.0381696
256,1.25684,-192.221,0.0416994
264,1.2959,-189.079,0.0425649
272,1.33496,-187.273,0.041256
280,1.37402,-178.028,0.04522562
288,1.41309,-184.845,0.046134
296,1.45215,-169.642,0.04786849
304,1.49121,-156.204,0.0477898
312,1.53027,-159.997,0.0511765
320,1.56934,-147.625,0.05263567
328,1.6084,-149.723,0.0515771
336,1.64746,-147.793,0.0522816
344,1.68652,-128.577,0.0546026
352,1.72559,-126.16,0.0563765
360,1.76465,-133.118,0.0581646
368,1.80371,-117.127,0.0576317
376,1.84277,-108.219,0.0610757
384,1.88184,-105.475,0.0628352
392,1.9209,-99.9546,0.0628138
400,1.95996,-98.0039,0.06415844
408,1.99902,-96.4486,0.0670159
416,2.03809,-87.4273,0.0658035
424,2.07715,-73.2625,0.0688255
432,2.11621,-64.4608,0.0692046
440,2.15527,-68.9179,0.0718474
448,2.19434,-56.3893,0.0695658
456,2.2334,-54.6529,0.0719583
464,2.27246,-39.1296,0.0751913
472,2.31152,-40.019,0.0765467
480,2.35059,-33.4847,0.0772333
488,2.38965,-28.2607,0.0798154
496,2.42871,-24.6358,0.0798082
504,2.46777,-13.5968,0.08040905
512,2.50684,-14.4888,0.08210063
520,2.5459,-1.40524,0.0838029
528,2.58496,-7.66073,0.0853658
536,2.62402,-4.46264,0.085845
544,2.66309,10.9939,0.0893426
552,2.70215,17.1557,0.08923173
560,2.74121,13.0414,0.0904119
568,2.78027,24.462,0.09141326
576,2.81934,32.7224,0.0926685
584,2.8584,32.5875,0.0956333
592,2.89746,37.1878,0.0950754
600,2.93652,39.3477,0.0975502
608,2.97559,64.8865,0.0992954
616,3.01465,54.4305,0.100375
624,3.05371,59.0616,0.100003
632,3.09277,79.2149,0.102174
640,3.13184,84.9315,0.104399
648,3.1709,93.2385,0.106065
656,3.20996,86.7429,0.10501
664,3.24902,95.4499,0.108933
672,3.28809,102.971,0.109026
680,3.32715,104.727,0.109109
688,3.36621,125.889,0.112063
696,3.40527,111.859,0.113196
704,3.44434,127.028,0.11306
712,3.4834,127,0.114834
720,3.52246,138.755,0.116229
728,3.56152,144.6,0.11816
736,3.60059,146.548,0.119752
744,3.63965,160.171,0.121322
752,3.67871,160.299,0.124204
760,3.71777,160.003,0.123103
768,3.75684,173.843,0.123768
776,3.7959,175.126,0.126572
784,3.83496,187.521,0.127076
792,3.87402,186.823,0.128217
800,3.91309,184.096,0.129994
808,3.95215,202.517,0.132111
816,3.99121,211.992,0.132108
824,4.03027,200.196,0.133678
832,4.06934,225.767,0.135216
840,4.1084,228.291,0.135545
848,4.14746,224.991,0.137569
856,4.18652,234.472,0.137526
864,4.22559,236.354,0.141013
872,4.26465,251.378,0.141796
880,4.30371,236.032,0.141846
888,4.34277,259.498,0.143359
896,4.38184,263.181,0.146188
904,4.4209,262.805,0.145544
912,4.45996,267.325,0.148362
920,4.49902,274.265,0.148959
928,4.53809,291.438,0.15143
936,4.57715,284.029,0.1518631
944,4.61621,282.205,0.151631
952,4.65527,306.187,0.15304
960,4.69434,307.853,0.156562
968,4.7334,296.134,0.155736
976,4.77246,320.355,0.159051
984,4.81152,327.45,0.15874
992,4.85059,336.071,0.160071
1000,4.88965,321.282,0.161937
1008,4.92871,338.511,0.164137
1016,4.96777,352.439,0.164845
1024,5.00684,340.984,0.165796
1032,5.0459,362.044,0.167459
1040,5.08496,364.522,0.168411
1048,5.12402,360.138,0.169165
1056,5.16309,370.084,0.170138
1064,5.20215,381.942,0.172255
1072,5.24121,377.834,0.17415
1080,5.28027,398.252,0.175513
1088,5.31934,385.135,0.175678
1096,5.3584,401.579,0.176847
1104,5.39746,402.215,0.177938
1112,5.43652,409.409,0.178843
1120,5.47559,423.95,0.181439
1128,5.51465,423.047,0.182555
1136,5.55371,427.267,0.183939
1144,5.59277,438.836,0.185412
1152,5.63184,435.574,0.187547
1160,5.6709,447.149,0.189146
1168,5.70996,447.978,0.189757
1176,5.74902,455.52,0.190762
1184,5.78809,466.144,0.191814
1192,5.82715,472.982,0.192511
1200,5.86621,462.799,0.194675
1208,5.90527,475.436,0.193827
1216,5.94434,482.446,0.198348
1224,5.9834,488.838,0.199074
1232,6.02246,476.149,0.198483
1240,6.06152,501.319,0.201083
1248,6.10059,506.389,0.204881
1256,6.13965,506.907,0.203583
1264,6.17871,522.302,0.205983
1272,6.21777,515.212,0.2058506
1280,6.25684,520.21,0.208139
1288,6.2959,534.212,0.208511
1296,6.33496,537.934,0.208329
1304,6.37402,546.795,0.213654
1312,6.41309,538.798,0.212681
1320,6.45215,546.753,0.214219
1328,6.49121,564.641,0.21541
1336,6.53027,570.412,0.217359
1344,6.56934,573.742,0.216511
1352,6.6084,578.668,0.219126
1360,6.64746,590.005,0.222269
1368,6.68652,588.461,0.22316
1376,6.72559,575.082,0.222895
1384,6.76465,596.236,0.225159
1392,6.80371,602.251,0.226457
1400,6.84277,611.093,0.227684
1408,6.88184,616.561,0.22783
1416,6.9209,621.512,0.229497
1424,6.95996,619.189,0.231425
1432,6.99902,621.117,0.232748
1440,7.03809,633.541,0.232319
1448,7.07715,643.535,0.238016
1456,7.11621,630.44,0.234972
1464,7.15527,645.609,0.237086
1472,7.19434,663.447,0.239933
1480,7.2334,668.497,0.240283
1488,7.27246,658.967,0.2419889
1496,7.31152,671.606,0.2431047
1504,7.35059,682.225,0.244689
1512,7.38965,683.175,0.246102
1520,7.42871,683.352,0.2470386
1528,7.46777,694.473,0.248376
1536,7.50684,700.537,0.251194
1544,7.5459,707.442,0.2498138
1552,7.58496,702.197,0.250933
1560,7.62402,712.349,0.254846
1568,7.66309,728.827,0.255829
1576,7.70215,717.54,0.255389
1584,7.74121,722.449,0.256956
1592,7.78027,750.786,0.259534
1600,7.81934,725.144,0.259809
1608,7.8584,754.692,0.261369
1616,7.89746,748.103,0.263747
1624,7.93652,752.18,0.263468
1632,7.97559,766.743,0.267023
1640,8.01465,760.227,0.265639
1648,8.05371,776.621,0.270199
1656,8.09277,788.04,0.270209
1664,8.13184,774.662,0.269659
1672,8.1709,788.644,0.273056
1680,8.20996,790.1,0.271518
1688,8.24902,793.564,0.274025
1696,8.28809,806.883,0.276321
1704,8.32715,815.002,0.276486
1712,8.36621,823.368,0.27934
1720,8.40527,822.995,0.280302
1728,8.44434,825.829,0.279572
1736,8.4834,836.798,0.283306
1744,8.52246,834.891,0.28249
1752,8.56152,837.101,0.283084
1760,8.60059,848.239,0.285884
1768,8.63965,856.751,0.287808
1776,8.67871,848.56,0.288377
1784,8.71777,859.513,0.288999
1792,8.75684,869.196,0.291388
1800,8.7959,874.864,0.291803
1808,8.83496,871.729,0.294038
1816,8.87402,888.694,0.294271
1824,8.91309,891.136,0.295354
1832,8.95215,896.616,0.298619
1840,8.99121,895.274,0.297872
1848,9.03027,909.378,0.299935
1856,9.06934,905.483,0.302085
1864,9.1084,908.001,0.302582
1872,9.14746,919.496,0.303268
1880,9.18652,925.924,0.305167
1888,9.22559,924.376,0.306108
1896,9.26465,934.481,0.306913
1904,9.30371,944.015,0.311054
1912,9.34277,950.299,0.311075
1920,9.38184,950.564,0.311637
1928,9.4209,940.805,0.312384
1936,9.45996,955.284,0.314848
1944,9.49902,958.606,0.316629
1952,9.53809,972.469,0.31575
1960,9.57715,972.455,0.31762
1968,9.61621,976.261,0.319111
1976,9.65527,981.113,0.32052
1984,9.69434,986.414,0.321182
1992,9.7334,995.206,0.322752
2000,9.77246,1003.28,0.324737
2008,9.81152,997.423,0.324064
2016,9.85059,1016.02,0.325817
2024,9.88965,1007.83,0.3303051
2032,9.92871,1022.95,0.330091
2040,9.96777,1032.16,0.3311348
2048,10.0068,1021.05,0.332683
2056,10.0459,1043.63,0.333821
2064,10.085,1048.01,0.335215
2072,10.124,1037.89,0.336413
2080,10.1631,1063.71,0.338001
2088,10.2021,1051.96,0.338151
2096,10.2412,1055.26,0.34088
2104,10.2803,1067.62,0.341313
2112,10.3193,1076.09,0.343169
2120,10.3584,1082.18,0.345354
2128,10.3975,1081.36,0.345104
2136,10.4365,1080.8,0.345644
2144,10.4756,1096.99,0.3484869
2152,10.5146,1099.63,0.348777
2160,10.5537,1106.5,0.350096
2168,10.5928,1112.31,0.352221
2176,10.6318,1117.51,0.354549
2184,10.6709,1122.59,0.354491
2192,10.71,1126.48,0.356373
2200,10.749,1132.48,0.357288
2208,10.7881,1131.62,0.359277
2216,10.8271,1130.77,0.359817
2224,10.8662,1150.48,0.360825
2232,10.9053,1158.52,0.362552
2240,10.9443,1153.42,0.363282
2248,10.9834,1159.08,0.362896
2256,11.0225,1162.67,0.367062
2264,11.0615,1164.7,0.368131
2272,11.1006,1167.52,0.3696835
2280,11.1396,1177.59,0.370041
2288,11.1787,1190.34,0.37233
2296,11.2178,1190.68,0.372537
2304,11.2568,1184.31,0.373614
2312,11.2959,1195.19,0.373482
2320,11.335,1205.41,0.378149
2328,11.374,1226.82,0.378724
2336,11.4131,1197.3,0.378213
2344,11.4521,1225.52,0.378706
2352,11.4912,1233.41,0.383127
2360,11.5303,1225.85,0.381417
2368,11.5693,1242.48,0.38426
2376,11.6084,1239.79,0.386074
2384,11.6475,1250.23,0.387154
2392,11.6865,1250.17,0.388416
2400,11.7256,1253.61,0.389907
2408,11.7646,1263.82,0.391427
2416,11.8037,1267.93,0.393187
2424,11.8428,1265.7,0.392665
2432,11.8818,1279.82,0.3949
2440,11.9209,1278.62,0.396985
2448,11.96,1290.92,0.396105
2456,11.999,1292.07,0.398737
2464,12.0381,1298.21,0.3995955
2472,12.0771,1300.65,0.402496
2480,12.1162,1304.34,0.402571
2488,12.1553,1315.48,0.404234
2496,12.1943,1319.32,0.405293
2504,12.2334,1320.06,0.405704
2512,12.2725,1320.52,0.408297
2520,12.3115,1333.87,0.409559
2528,12.3506,1341.28,0.411555
2536,12.3896,1334.68,0.411376
2544,12.4287,1350.41,0.412309
2552,12.4678,1366.08,0.414205
2560,12.5068,1356.29,0.41644
2568,12.5459,1361.31,0.415159
2576,12.585,1366.86,0.417684
2584,12.624,1367.77,0.420209
2592,12.6631,1379.16,0.421257
2600,12.7021,1383.81,0.422291
2608,12.7412,1385.43,0.423828
2616,12.7803,1401.95,0.424569
2624,12.8193,1391.92,0.423971
2632,12.8584,1399.98,0.426925
2640,12.8975,1413.1,0.429568
2648,12.9365,1411.04,0.430434
2656,12.9756,1409.12,0.430684
2664,13.0146,1439.08,0.432519
2672,13.0537,1421.24,0.433896
2680,13.0928,1432.12,0.433545
2688,13.1318,1431.76,0.435841
2696,13.1709,1445.77,0.438362
2704,13.21,1448.26,0.438688
2712,13.249,1449.92,0.439221
2720,13.2881,1461.86,0.44108
2728,13.3271,1473.6,0.44367
2736,13.3662,1481.66,0.445029
2744,13.4053,1478.43,0.44426
2752,13.4443,1478.48,0.447414
2760,13.4834,1476.86,0.449728
2768,13.5225,1481.48,0.448515
2776,13.5615,1498,0.452743
2784,13.6006,1491.32,0.453583
2792,13.6396,1495.95,0.453612
2800,13.6787,1512.78,0.454001
2808,13.7178,1506.55,0.457002
2816,13.7568,1518.89,0.458808
2824,13.7959,1514.72,0.457832
2832,13.835,1530.66,0.45962
2840,13.874,1530.74,0.462323
2848,13.9131,1518.11,0.461998
2856,13.9521,1542.51,0.464394
2864,13.9912,1551.37,0.465235
2872,14.0303,1546.5,0.467377
2880,14.0693,1559.73,0.4678452
2888,14.1084,1560.43,0.4680419
2896,14.1475,1573.2,0.469079
2904,14.1865,1580.18,0.472763
2912,14.2256,1570.6,0.472426
2920,14.2646,1585.76,0.474476
2928,14.3037,1589.84,0.475924
2936,14.3428,1594.96,0.476503
2944,14.3818,1592.73,0.479826
2952,14.4209,1600.18,0.479414
2960,14.46,1611.1,0.481389
2968,14.499,1615.94,0.482061
2976,14.5381,1614.32,0.482572
2984,14.5771,1612.76,0.486377
2992,14.6162,1617.65,0.484661
3000,14.6553,1627.34,0.486195
3008,14.6943,1633.07,0.489221
3016,14.7334,1644.8,0.48838
3024,14.7725,1643.71,0.492582
3032,14.8115,1642.19,0.492582
3040,14.8506,1654.75,0.496484
3048,14.8896,1658.76,0.49421
3056,14.9287,1647.03,0.494632
3064,14.9678,1674.89,0.496995
3072,15.0068,1668.74,0.498816
3080,15.0459,1676,0.501519
3088,15.085,1683.17,0.501219
3096,15.124,1688.08,0.503415
3104,15.1631,1694.27,0.505425
3112,15.2021,1689.88,0.506694
3120,15.2412,1698.39,0.506687
3128,15.2803,1724.52,0.508547
3136,15.3193,1705.8,0.508744
3144,15.3584,1712,0.511587
3152,15.3975,1722.53,0.510417
3160,15.4365,1718.13,0.5143404
3168,15.4756,1729.27,0.512992
3176,15.5146,1728.5,0.516479
3184,15.5537,1732.58,0.517559
3192,15.5928,1747.92,0.517648
3200,15.6318,1746.94,0.51944
3208,15.6709,1754.28,0.520452
3216,15.71,1759.12,0.522813
3224,15.749,1766.23,0.524418
3232,15.7881,1761.8,0.525173
3240,15.8271,1777.88,0.523739
3248,15.8662,1784.68,0.528789
3256,15.9053,1787.39,0.528699
3264,15.9443,1786.07,0.529754
3272,15.9834,1790.5,0.532669
3280,16.0225,1801.78,0.533627
3288,16.0615,1799.77,0.534099
3296,16.1006,1802.34,0.535551
3304,16.1396,1834.42,0.5373
3312,16.1787,1821.66,0.537915
3320,16.2178,1810.41,0.538094
3328,16.2568,1822.47,0.541484
3336,16.2959,1827.37,0.542411
3344,16.335,1843.78,0.54318
3352,16.374,1844.35,0.544685
3360,16.4131,1848.63,0.545722
3368,16.4521,1858.81,0.546387
3376,16.4912,1857.49,0.547639
3384,16.5303,1854.07,0.550128
3392,16.5693,1877.77,0.552052
3400,16.6084,1863.11,0.552775
3408,16.6475,1878.28,0.553186
3416,16.6865,1895.37,0.555543
3424,16.7256,1887.22,0.55492
3432,16.7646,1891.59,0.556723
3440,16.8037,1897.91,0.557274
3448,16.8428,1901.12,0.561411
3456,16.8818,1904.56,0.5624342
3464,16.9209,1897.68,0.561422
3472,16.96,1911.31,0.563174
3480,16.999,1913.92,0.564297
3488,17.0381,1919.8,0.56492
3496,17.0771,1912.24,0.567169
3504,17.1162,1940.31,0.568078
3512,17.1553,1935.57,0.5701983
3520,17.1943,1932.65,0.572087
3528,17.2334,1944.07,0.571554
3536,17.2725,1948.09,0.5742538
3544,17.3115,1955.89,0.5753231
3552,17.3506,1955.15,0.576196
3560,17.3896,1961.89,0.577941
3568,17.4287,1964.65,0.581328
3576,17.4678,1961.69,0.578974
3584,17.5068,1969.39,0.579482
3592,17.5459,1994.83,0.584661
3600,17.585,1997.34,0.585995
3608,17.624,1987.13,0.585698
3616,17.6631,1993.51,0.58666
3624,17.7021,2000.17,0.589188
3632,17.7412,2015.2,0.589625
3640,17.7803,2001.75,0.5910337
3648,17.8193,2016.24,0.591896
3656,17.8584,2027.93,0.594138
3664,17.8975,2012.14,0.594624
3672,17.9365,2025.88,0.595908
3680,17.9756,2038.66,0.597661
3688,18.0146,2031.18,0.599012
3696,18.0537,2041.81,0.59996
3704,18.0928,2050.44,0.601777
3712,18.1318,2054.5,0.602142
3720,18.1709,2057.88,0.604066
3728,18.21,2054.02,0.6058
3736,18.249,2067.56,0.606555
3744,18.2881,2083.61,0.608704
3752,18.3271,2072.18,0.6094408
3760,18.3662,2091.83,0.611222
3768,18.4053,2087.99,0.612048
3776,18.4443,2099.94,0.612581
3784,18.4834,2094,0.61399
3792,18.5225,2101.28,0.614619
3800,18.5615,2105.94,0.616804
3808,18.6006,2108.19,0.618621
3816,18.6396,2105.89,0.6190896
3824,18.6787,2116.94,0.623435
3832,18.7178,2128.05,0.623002
3840,18.7568,2129.09,0.623317
3848,18.7959,2135.22,0.62391
3856,18.835,2145.59,0.625902
3864,18.874,2147.11,0.628045
3872,18.9131,2140.71,0.627959
3880,18.9521,2157.15,0.630165
3888,18.9912,2159.26,0.631524
3896,19.0303,2159.43,0.632758
3904,19.0693,2170.41,0.634636
3912,19.1084,2173.76,0.6352222
3920,19.1475,2175.94,0.638151
3928,19.1865,2188.59,0.638666
3936,19.2256,2190.17,0.640501
3944,19.2646,2199.78,0.641845
3952,19.3037,2196.59,0.6412518
3960,19.3428,2196.47,0.643805
3968,19.3818,2213.15,0.645854
3976,19.4209,2206.86,0.647156
3984,19.46,2223.13,0.647657
3992,19.499,2220.76,0.648043
4000,19.5381,2227.36,0.649738
4008,19.5771,2235.39,0.651795
4016,19.6162,2225.52,0.652746
4024,19.6553,2243.49,0.654831
4032,19.6943,2243.69,0.65589
4040,19.7334,2247.04,0.6554
4048,19.7725,2242.56,0.657935
4056,19.8115,2250.65,0.659777
4064,19.8506,2271.54,0.660253
4072,19.8896,2266.67,0.6616652
4080,19.9287,2271.57,0.662763
4088,19.9678,2270.09,0.664308
4096,20.0068,2281.03,0.665674
4104,20.0459,2287.07,0.665799
4112,20.085,2283.32,0.6692791
4120,20.124,2293.16,0.6699264
4128,20.1631,2298.76,0.670753
4136,20.2021,2297.46,0.674032
4144,20.2412,2317.69,0.675974
4152,20.2803,2312.73,0.676196
4160,20.3193,2304.22,0.676478
4168,20.3584,2328.25,0.677519
4176,20.3975,2324.51,0.679028
4184,20.4365,2323.02,0.679629
4192,20.4756,2324.84,0.682386
4200,20.5146,2344.24,0.683945
4208,20.5537,2347.15,0.685469
4216,20.5928,2343.85,0.685047
4224,20.6318,2346.14,0.686052
4232,20.6709,2366.12,0.6896174
4240,20.71,2362.35,0.689231
4248,20.749,2364.22,0.689145
4256,20.7881,2372.75,0.691488
4264,20.8271,2373.36,0.69241
4272,20.8662,2376.7,0.6952
4280,20.9053,2389.24,0.696051
4288,20.9443,2389.89,0.699062
4296,20.9834,2398.94,0.698794
4304,21.0225,2400.55,0.697582
4312,21.0615,2399.79,0.701616
4320,21.1006,2411.44,0.702235
4328,21.1396,2417.28,0.704362
4336,21.1787,2418.43,0.704151
4344,21.2178,2427.63,0.705131
4352,21.2568,2434.18,0.709527
4360,21.2959,2429.09,0.708214
4368,21.335,2427.66,0.709988
4376,21.374,2446.41,0.71262
4384,21.4131,2442.87,0.712777
4392,21.4521,2452.76,0.713511
4400,21.4912,2465.65,0.716479
4408,21.5303,2456.52,0.7156384
4416,21.5693,2462.68,0.718621
4424,21.6084,2464.38,0.718889
4432,21.6475,2467.47,0.719773
4440,21.6865,2493.8,0.72136
4448,21.7256,2471.65,0.722766
4456,21.7646,2499.02,0.725116
4464,21.8037,2495.04,0.7264924
4472,21.8428,2495.78,0.72808
4480,21.8818,2498.11,0.727433
4488,21.9209,2509.38,0.729107
4496,21.96,2502.94,0.72989
4504,21.999,2510.41,0.7314527
4512,22.0381,2507.64,0.732218
4520,22.0771,2517.28,0.735619
4528,22.1162,2525.33,0.737175
4536,22.1553,2530.59,0.737014
4544,22.1943,2535.96,0.739092
4552,22.2334,2546.06,0.741702
4560,22.2725,2544.86,0.741291
4568,22.3115,2544.19,0.74103
4576,22.3506,2556.34,0.744824
4584,22.3896,2570.31,0.745718
4592,22.4287,2552.63,0.746698
4600,22.4678,2570.1,0.74707
4608,22.5068,2575.38,0.747507
4616,22.5459,2579.73,0.751276
4624,22.585,2585.9,0.751759
4632,22.624,2590.69,0.751462
4640,22.6631,2592.53,0.75344
4648,22.7021,2593.28,0.753858
4656,22.7412,2588.53,0.756204
4664,22.7803,2611.89,0.758643
4672,22.8193,2600.32,0.761125
4680,22.8584,2606.68,0.76056
4688,22.8975,2615.67,0.761654
4696,22.9365,2627.65,0.763575
4704,22.9756,2622.05,0.764412
4712,23.0146,2621.06,0.76424
4720,23.0537,2639.71,0.767072
4728,23.0928,2641.78,0.76979
4736,23.1318,2635.92,0.7712853
4744,23.1709,2651.35,0.769676
4752,23.21,2652.47,0.771489
4760,23.249,2654.38,0.775323
4768,23.2881,2661.49,0.7746613
4776,23.3271,2673.19,0.77504
4784,23.3662,2677.75,0.7795608
4792,23.4053,2672.18,0.779157
4800,23.4443,2675.74,0.779167
4808,23.4834,2691.71,0.783169
4816,23.5225,2685.49,0.783362
4824,23.5615,2710.53,0.7844
4832,23.6006,2689.73,0.784929
4840,23.6396,2694.69,0.785297
4848,23.6787,2709.46,0.788169
4856,23.7178,2693.82,0.7882154
4864,23.7568,2721.72,0.791488
4872,23.7959,2726.33,0.792453
4880,23.835,2719.9,0.792603
4888,23.874,2728.2,0.795819
4896,23.9131,2731.92,0.795439
4904,23.9521,2737.57,0.79707
4912,23.9912,2748.54,0.798336
4920,24.0303,2745.04,0.799996
4928,24.0693,2760.16,0.802263
4936,24.1084,2755.24,0.8017838
4944,24.1475,2751.54,0.802996
4952,24.1865,2770.42,0.807288
4960,24.2256,2777.86,0.806662
4968,24.2646,2776.03,0.807753
4976,24.3037,2767.03,0.8080101
4984,24.3428,2789.51,0.810299
4992,24.3818,2786.9,0.81252
5000,24.4209,2790.62,0.812241
5008,24.46,2781.75,0.814383
5016,24.499,2802.37,0.817348
5024,24.5381,2800.79,0.8175087
5032,24.5771,2797.72,0.817444
5040,24.6162,2813.08,0.818678
5048,24.6553,2820.24,0.820627
5056,24.6943,2815.57,0.821164
5064,24.7334,2827.08,0.821918
5072,24.7725,2829.04,0.824983
5080,24.8115,2822.84,0.82509
5088,24.8506,2828.66,0.826646
5096,24.8896,2844.25,0.82896
5104,24.9287,2855.4,0.829296
5112,24.9678,2842.05,0.831081
5120,25.0068,2847.1,0.832397
5128,25.0459,2856.86,0.834643
5136,25.085,2874.79,0.835862
5144,25.124,2854.36,0.836134
5152,25.1631,2877.32,0.837368
5160,25.2021,2877.32,0.839353
5168,25.2412,2882.87,0.841413
5176,25.2803,2882.84,0.84054
5184,25.3193,2885.74,0.841302
5192,25.3584,2891.59,0.844603
5200,25.3975,2899.86,0.847982
5208,25.4365,2884.61,0.845257
5216,25.4756,2902.72,0.848984
5224,25.5146,2911.71,0.850625
5232,25.5537,2917.8,0.851043
5240,25.5928,2916.91,0.851848
5248,25.6318,2927.04,0.852778
5256,25.6709,2927.71,0.855592
5264,25.71,2923.95,0.854816
5272,25.749,2940.52,0.855528
5280,25.7881,2940.93,0.859619
5288,25.8271,2944.63,0.860978
5296,25.8662,2956.34,0.861415
5304,25.9053,2948.16,0.863013
5312,25.9443,2953.17,0.864476
5320,25.9834,2966.23,0.86454
5328,26.0225,2958.1,0.866143
5336,26.0615,2982.09,0.866969
5344,26.1006,2976.17,0.868592
5352,26.1396,2973.73,0.86978
5360,26.1787,2983.82,0.872362
5368,26.2178,2987.49,0.872755
5376,26.2568,2980.58,0.873277
5384,26.2959,2997.53,0.874622
5392,26.335,3006.02,0.876961
5400,26.374,3004.59,0.879858
5408,26.4131,3007.84,0.878938
5416,26.4521,3005.04,0.87808
5424,26.4912,3024.1,0.883913
5432,26.5303,3026.21,0.882747
5440,26.5693,3025.43,0.884128
5448,26.6084,3037.29,0.8866632
5456,26.6475,3032.48,0.886563
5464,26.6865,3036.04,0.888383
5472,26.7256,3043,0.888573
5480,26.7646,3052,0.892063
5488,26.8037,3055.61,0.8917129
5496,26.8428,3056,0.892156
5504,26.8818,3066.41,0.895743
5512,26.9209,3070.63,0.896398
5520,26.96,3071.91,0.897424
5528,26.999,3070.72,0.898798
5536,27.0381,3073.94,0.900028
5544,27.0771,3074.82,0.901129
5552,27.1162,3090.97,0.902663
5560,27.1553,3091.14,0.9053421
5568,27.1943,3092.93,0.905632
5576,27.2334,3110.53,0.905986
5584,27.2725,3107.42,0.908786
5592,27.3115,3101.34,0.910256
5600,27.3506,3120.37,0.909147
5608,27.3896,3113.08,0.911636
5616,27.4287,3111.46,0.91189
5624,27.4678,3112.2,0.914315
5632,27.5068,3128.73,0.916464
5640,27.5459,3138.09,0.916815
5648,27.585,3135.47,0.918632
5656,27.624,3136.19,0.919447
5664,27.6631,3144.59,0.919561
5672,27.7021,3144.56,0.923131
5680,27.7412,3155.03,0.923742
5688,27.7803,3156.49,0.925301
5696,27.8193,3150.73,0.926156
5704,27.8584,3174.19,0.927883
5712,27.8975,3176.2,0.929614
5720,27.9365,3176.63,0.929099
5728,27.9756,3178.81,0.931488
5736,28.0146,3178.12,0.932003
5744,28.0537,3187.84,0.934135
5752,28.0928,3190.49,0.935054
5760,28.1318,3188.36,0.934474
5768,28.1709,3201.09,0.93829
5776,28.21,3211.18,0.938469
5784,28.249,3202.39,0.939513
5792,28.2881,3214.33,0.940654
5800,28.3271,3220.09,0.943394
5808,28.3662,3213.92,0.944506
5816,28.4053,3225.98,0.945035
5824,28.4443,3229.94,0.9474957
5832,28.4834,3243.72,0.948572
5840,28.5225,3234.14,0.950818
5848,28.5615,3234.87,0.95041
5856,28.6006,3247.12,0.951226
5864,28.6396,3245.97,0.954344
5872,28.6787,3248.83,0.954927
5880,28.7178,3256.58,0.95659
5888,28.7568,3258.57,0.959083
5896,28.7959,3268.7,0.959058
5904,28.835,3254.53,0.959072
5912,28.874,3279.95,0.961418
5920,28.9131,3279.41,0.962884
5928,28.9521,3293.38,0.963364
5936,28.9912,3285.36,0.964723
5944,29.0303,3305.48,0.96665
5952,29.0693,3299.11,0.967051
5960,29.1084,3289.56,0.968574
5968,29.1475,3303.56,0.970223
5976,29.1865,3313.2,0.971389
5984,29.2256,3308.46,0.9716928
5992,29.2646,3319.13,0.974379
6000,29.3037,3327.04,0.97484
6008,29.3428,3327.39,0.978427
6016,29.3818,3332.13,0.979335
6024,29.4209,3337.94,0.979704
6032,29.46,3335.76,0.983119
6040,29.499,3342.25,0.98171
6048,29.5381,3340.82,0.983151
6056,29.5771,3343.3,0.9864378
6064,29.6162,3358.23,0.9855473
6072,29.6553,3359.33,0.987139
6080,29.6943,3356.63,0.988312
6088,29.7334,3363.54,0.989978
6096,29.7725,3363.52,0.991709
6104,29.8115,3365.91,0.990239
6112,29.8506,3387.3,0.996205
6120,29.8896,3374.76,0.9962368
6128,29.9287,3389.04,0.996433
6136,29.9678,3392.77,0.998079
6144,30.0068,3393.86,0.999155
6152,30.0459,3399.58,1.00204
6160,30.085,3407.45,1.00066
6168,30.124,3407.44,1.00145
6176,30.1631,3425.11,1.00512
6184,30.2021,3407.77,1.00693
6192,30.2412,3414.75,1.00527
6200,30.2803,3425.1,1.00745
6208,30.3193,3428.26,1.01082
6216,30.3584,3431.17,1.00962
6224,30.3975,3438.54,1.01269
6232,30.4365,3435.52,1.01329
6240,30.4756,3443.06,1.016475
6248,30.5146,3432.37,1.01488
6256,30.5537,3453.68,1.01659
6264,30.5928,3465,1.02033
6272,30.6318,3457.35,1.020602
6280,30.6709,3460.87,1.02184
6288,30.71,3469.89,1.02212
6296,30.749,3470.71,1.02451
6304,30.7881,3477.92,1.02568
6312,30.8271,3483.12,1.02529
6320,30.8662,3489.17,1.02774
6328,30.9053,3489.17,1.03002
6336,30.9443,3488.16,1.02839
6344,30.9834,3491.99,1.03269
6352,31.0225,3499.49,1.0333
6360,31.0615,3509.97,1.03337
6368,31.1006,3507,1.03603
6376,31.1396,3516.75,1.03619
6384,31.1787,3516.34,1.03925
6392,31.2178,3519.2,1.0382
6400,31.2568,3525.38,1.041187
6408,31.2959,3530.41,1.04267
6416,31.335,3526.94,1.04239
6424,31.374,3537.79,1.0442
6432,31.4131,3543.68,1.04615
6440,31.4521,3554.1,1.04933
6448,31.4912,3549.66,1.049931
6456,31.5303,3552.4,1.04825
6464,31.5693,3557.7,1.05197
6472,31.6084,3562.56,1.050657
6480,31.6475,3562.12,1.05349
6488,31.6865,3576.85,1.05584
6496,31.7256,3568.63,1.05538
6504,31.7646,3572.07,1.05686
6512,31.8037,3580.35,1.05815
6520,31.8428,3585.18,1.06058
6528,31.8818,3597.92,1.06323
6536,31.9209,3592.89,1.06241
6544,31.96,3596.05,1.06205
6552,31.999,3599.99,1.066
6560,32.0381,3605.21,1.06775
6568,32.0771,3598.78,1.06765
6576,32.1162,3617.77,1.0692
6584,32.1553,3616.9,1.07152
6592,32.1943,3620.63,1.07283
6600,32.2334,3624.33,1.07257
6608,32.2725,3627.82,1.07495
6616,32.3115,3635.19,1.07705
6624,32.3506,3636.81,1.07831
6632,32.3896,3637.16,1.07824
6640,32.4287,3647.37,1.08062
6648,32.4678,3661.01,1.08155
6656,32.5068,3646.23,1.080848
6664,32.5459,3670.83,1.08313
6672,32.585,3661.92,1.08609
6680,32.624,3667.12,1.08631
6688,32.6631,3669.36,1.08737
6696,32.7021,3672.48,1.0896
6704,32.7412,3682.27,1.09062
6712,32.7803,3689.86,1.0924
6720,32.8193,3693.7,1.09345
6728,32.8584,3694.85,1.09547
6736,32.8975,3698.59,1.09553
6744,32.9365,3692.56,1.09632
6752,32.9756,3708.15,1.09818
6760,33.0146,3704.37,1.09915
6768,33.0537,3719.42,1.10202
6776,33.0928,3714.79,1.10164
6784,33.1318,3718.86,1.10452
6792,33.1709,3729.06,1.10604
6800,33.21,3726.11,1.10574
6808,33.249,3734.24,1.10724
6816,33.2881,3733.92,1.10861
6824,33.3271,3734.85,1.11063
6832,33.3662,3745.22,1.11061
6840,33.4053,3748.96,1.11324
6848,33.4443,3764.25,1.11467
6856,33.4834,3759.74,1.115427
6864,33.5225,3757.28,1.11635
6872,33.5615,3768.83,1.11849
6880,33.6006,3764.78,1.12137
6888,33.6396,3778.92,1.12069
6896,33.6787,3774.62,1.1229
6904,33.7178,3782.86,1.12233
6912,33.7568,3784.91,1.1243
6920,33.7959,3788.97,1.12573
6928,33.835,3794.61,1.12882
6936,33.874,3803.98,1.13145
6944,33.9131,3788.31,1.12952
6952,33.9521,3804.77,1.13076
6960,33.9912,3807.22,1.13363
6968,34.0303,3815.29,1.13352
6976,34.0693,3816.64,1.13504
6984,34.1084,3826.77,1.13705
6992,34.1475,3828.95,1.13835
7000,34.1865,3835.33,1.13853
7008,34.2256,3835.02,1.13868
7016,34.2646,3833.66,1.13997
7024,34.3037,3847.56,1.14382
7032,34.3428,3836.31,1.14301
7040,34.3818,3851.24,1.14528
7048,34.4209,3849.54,1.14761
7056,34.46,3854.33,1.14737
7064,34.499,3855.01,1.14982
7072,34.5381,3867.42,1.14945
7080,34.5771,3858.85,1.15321
7088,34.6162,3868.73,1.15178
7096,34.6553,3879.27,1.15484
7104,34.6943,3877.76,1.15494
7112,34.7334,3882.64,1.15736
7120,34.7725,3884.86,1.15757
7128,34.8115,3895.3,1.15938
7136,34.8506,3902.4,1.16159
7144,34.8896,3893.46,1.16119
7152,34.9287,3899.08,1.16221
7160,34.9678,3904.16,1.16558
7168,35.0068,3916.55,1.16656
7176,35.0459,3908.44,1.16773
7184,35.085,3919.93,1.1692
7192,35.124,3917.38,1.17043
7200,35.1631,3929.23,1.16952
7208,35.2021,3916.54,1.17144
7216,35.2412,3925.33,1.17254
7224,35.2803,3946.83,1.17781
7232,35.3193,3931.21,1.17476
7240,35.3584,3942.81,1.17746
7248,35.3975,3956.41,1.17978
7256,35.4365,3960.32,1.1818
7264,35.4756,3954.75,1.18187
7272,35.5146,3956.15,1.18394
7280,35.5537,3963.96,1.18395
7288,35.5928,3969.66,1.18578
7296,35.6318,3968.42,1.18643
7304,35.6709,3977.66,1.18843
7312,35.71,3984.02,1.19022
7320,35.749,3975.16,1.19048
7328,35.7881,3987.33,1.1931
7336,35.8271,3994.27,1.192528
7344,35.8662,4004.07,1.19602
7352,35.9053,4001.08,1.19649
7360,35.9443,4002.25,1.19805
7368,35.9834,4008.02,1.19992
7376,36.0225,4008.89,1.199863
7384,36.0615,4014.09,1.20124
7392,36.1006,4017.84,1.20426
7400,36.1396,4036,1.20441
7408,36.1787,4020.82,1.20512
7416,36.2178,4029.71,1.20682
7424,36.2568,4046.19,1.20776
7432,36.2959,4039.76,1.20982
7440,36.335,4038.82,1.2087
7448,36.374,4049.71,1.21265
7456,36.4131,4052.56,1.2139
7464,36.4521,4056.19,1.214236
7472,36.4912,4048.69,1.21562
7480,36.5303,4059.89,1.21901
7488,36.5693,4065.65,1.21848
7496,36.6084,4068.22,1.21973
7504,36.6475,4073.24,1.22003
7512,36.6865,4087.88,1.22319
7520,36.7256,4082.94,1.22401
7528,36.7646,4083.93,1.22367
7536,36.8037,4099.7,1.22687
7544,36.8428,4091.79,1.22765
7552,36.8818,4100.71,1.22931
7560,36.9209,4098.72,1.22987
7568,36.96,4102.03,1.23104
7576,36.999,4103.16,1.23196
7584,37.0381,4105.94,1.23281
7592,37.0771,4122.34,1.23631
7600,37.1162,4116.02,1.23667
7608,37.1553,4115.89,1.23859
7616,37.1943,4120.02,1.23916
7624,37.2334,4131.66,1.24174
7632,37.2725,4136.57,1.2421
7640,37.3115,4134.49,1.24287
7648,37.3506,4149.48,1.24362
7656,37.3896,4145.58,1.24531
7664,37.4287,4143.55,1.24652
7672,37.4678,4152.91,1.24788
7680,37.5068,4154.6,1.24894
7688,37.5459,4164.93,1.25206
7696,37.585,4164.72,1.25216
7704,37.624,4154.82,1.25173
7712,37.6631,4180.56,1.2555
7720,37.7021,4179.25,1.25661
7728,37.7412,4175.48,1.25728
7736,37.7803,4192.47,1.258893
7744,37.8193,4185.84,1.25952
7752,37.8584,4186.15,1.26113
7760,37.8975,4191.47,1.26155
7768,37.9365,4195.22,1.2638
7776,37.9756,4204.23,1.26777
7784,38.0146,4200.17,1.26607
7792,38.0537,4209.81,1.26702
7800,38.0928,4220.95,1.26855
7808,38.1318,4209.93,1.26984
7816,38.1709,4220.6,1.27142
7824,38.21,4222.79,1.27219
7832,38.249,4221.88,1.27483
7840,38.2881,4226.31,1.27609
7848,38.3271,4232.94,1.27581
7856,38.3662,4243.72,1.27831
7864,38.4053,4247.15,1.28019
7872,38.4443,4245.33,1.27974
7880,38.4834,4251.55,1.28146
7888,38.5225,4254.25,1.283108
7896,38.5615,4251.35,1.28497
7904,38.6006,4256.61,1.28436
7912,38.6396,4277.45,1.28652
7920,38.6787,4267.04,1.29089
7928,38.7178,4251.16,1.2884
7936,38.7568,4274.15,1.29059
7944,38.7959,4279.12,1.29202
7952,38.835,4278.17,1.293608
7960,38.874,4285.4,1.2954
7968,38.9131,4288.38,1.29469
7976,38.9521,4299.93,1.29914
7984,38.9912,4301.83,1.299777
7992,39.0303,4303.31,1.29765
8000,39.0693,4295.47,1.30224
8008,39.1084,4308.76,1.30431
8016,39.1475,4318.31,1.30447
8024,39.1865,4316.17,1.30509
8032,39.2256,4326.16,1.30743
8040,39.2646,4315.18,1.30857
8048,39.3037,4327.26,1.30855
8056,39.3428,4328.71,1.31194
8064,39.3818,4338.81,1.31183
8072,39.4209,4326.75,1.31322
8080,39.46,4344.57,1.31424
8088,39.499,4352.29,1.31577
8096,39.5381,4359.38,1.31728
8104,39.5771,4354.5,1.31903
8112,39.6162,4361.85,1.31827
8120,39.6553,4361.68,1.32131
8128,39.6943,4367.62,1.32327
8136,39.7334,4358.01,1.32245
8144,39.7725,4367.56,1.32569
8152,39.8115,4376.12,1.32735
8160,39.8506,4381.63,1.3278
8168,39.8896,4384.52,1.32802
8176,39.9287,4383.93,1.32843
8184,39.9678,4394.75,1.3308
8192,40.0068,4391.94,1.33267
8200,40.0459,4403.13,1.3324
8208,40.085,4405.91,1.336863
8216,40.124,4402.65,1.33718
8224,40.1631,4412.82,1.33774
8232,40.2021,4411.63,1.33905
8240,40.2412,4420.45,1.34029
8248,40.2803,4428.24,1.34245
8256,40.3193,4419.2,1.342814
8264,40.3584,4441.98,1.34398
8272,40.3975,4433.9,1.34581
8280,40.4365,4430.59,1.34641
8288,40.4756,4445.84,1.34875
8296,40.5146,4442.54,1.35074
8304,40.5537,4452.63,1.35136
8312,40.5928,4452.94,1.35253
8320,40.6318,4464.9,1.35468
8328,40.6709,4464.79,1.3557
8336,40.71,4457.19,1.35708
8344,40.749,4463.05,1.35885
8352,40.7881,4470.08,1.35836
8360,40.8271,4481.95,1.36109
8368,40.8662,4468.67,1.36122
8376,40.9053,4475.69,1.36308
8384,40.9443,4482.73,1.36502
8392,40.9834,4487.36,1.3662
8400,41.0225,4487.48,1.3644
8408,41.0615,4501.97,1.36929
8416,41.1006,4500.25,1.3702
8424,41.1396,4497.4,1.37014
8432,41.1787,4509.9,1.37321
8440,41.2178,4500.79,1.37236
8448,41.2568,4525.31,1.37527
8456,41.2959,4510.69,1.37634
8464,41.335,4521.77,1.37773
8472,41.374,4534.46,1.37957
8480,41.4131,4510.98,1.379528
8488,41.4521,4528.44,1.38034
8496,41.4912,4547.77,1.382786
8504,41.5303,4546.2,1.38339
8512,41.5693,4544.1,1.38521
8520,41.6084,4549.24,1.3857
8528,41.6475,4553.43,1.38848
8536,41.6865,4552.26,1.38997
8544,41.7256,4545.27,1.38971
8552,41.7646,4561.7,1.39177
8560,41.8037,4565.11,1.392467
8568,41.8428,4565.72,1.39356
8576,41.8818,4578.22,1.39623
8584,41.9209,4574.47,1.3954
8592,41.96,4578.07,1.39734
8600,41.999,4581.42,1.39811
8608,42.0381,4589.58,1.39956
8616,42.0771,4590.2,1.40184
8624,42.1162,4589.07,1.404072
8632,42.1553,4599.52,1.40394
8640,42.1943,4604.04,1.405499
8648,42.2334,4607.49,1.40695
8656,42.2725,4613.79,1.4063
8664,42.3115,4614.33,1.40756
8672,42.3506,4618.27,1.4108
8680,42.3896,4615.38,1.41374
8688,42.4287,4619.92,1.41247
8696,42.4678,4631.93,1.41459
8704,42.5068,4639.08,1.41595
8712,42.5459,4637.78,1.41868
8720,42.585,4634.23,1.41788
8728,42.624,4641.73,1.42052
8736,42.6631,4652.37,1.42202
8744,42.7021,4643.08,1.4224
8752,42.7412,4655.69,1.42302
8760,42.7803,4665.18,1.42665
8768,42.8193,4664.95,1.4253
8776,42.8584,4668.59,1.42721
8784,42.8975,4658.93,1.42917
8792,42.9365,4668.86,1.43108
8800,42.9756,4679.2,1.43178
8808,43.0146,4676.37,1.4323
8816,43.0537,4687.75,1.43462
8824,43.0928,4687.81,1.43658
8832,43.1318,4682.05,1.43394
8840,43.1709,4696.8,1.43963
8848,43.21,4698.59,1.43885
8856,43.249,4702.07,1.44113
8864,43.2881,4698.62,1.44122
8872,43.3271,4709.41,1.44364
8880,43.3662,4708.38,1.44526
8888,43.4053,4719.87,1.44572
8896,43.4443,4719.75,1.44672
8904,43.4834,4720.53,1.45039
8912,43.5225,4720.79,1.44849
8920,43.5615,4735.35,1.45187
8928,43.6006,4725.45,1.45169
8936,43.6396,4742.65,1.454165
8944,43.6787,4733.25,1.45554
8952,43.7178,4743.21,1.45611
8960,43.7568,4749.66,1.45801
8968,43.7959,4746.3,1.45969
8976,43.835,4741.79,1.46013
8984,43.874,4762.53,1.46253
8992,43.9131,4757.62,1.462158
9000,43.9521,4767.83,1.4657
9008,43.9912,4773.41,1.46475
9016,44.0303,4768.42,1.46597
9024,44.0693,4782.8,1.4685
9032,44.1084,4772.61,1.468209
9040,44.1475,4785.03,1.47015
9048,44.1865,4800.43,1.47248
9056,44.2256,4790.34,1.47297
9064,44.2646,4791.84,1.47396
9072,44.3037,4800.56,1.47561
9080,44.3428,4807,1.478641
9088,44.3818,4802.64,1.47867
9096,44.4209,4793.07,1.47926
9104,44.46,4815.39,1.48123
9112,44.499,4822.8,1.48171
9120,44.5381,4816.38,1.48324
9128,44.5771,4828.21,1.48503
9136,44.6162,4829.56,1.48596
9144,44.6553,4827.63,1.48698
9152,44.6943,4831.84,1.48937
9160,44.7334,4834.69,1.48986
9168,44.7725,4842.19,1.49173
9176,44.8115,4838.06,1.492542
9184,44.8506,4845.25,1.49193
9192,44.8896,4849.47,1.49591
9200,44.9287,4859.81,1.49727
9208,44.9678,4853.58,1.49804
9216,45.0068,4869.94,1.49799
9224,45.0459,4874.5,1.50048
9232,45.085,4867.04,1.50397
9240,45.124,4861.61,1.50161
9248,45.1631,4880.28,1.504612
9256,45.2021,4873.62,1.50526
9264,45.2412,4883.88,1.50557
9272,45.2803,4885.36,1.50955
9280,45.3193,4893.03,1.50811
9288,45.3584,4899.75,1.5109
9296,45.3975,4896.35,1.51221
9304,45.4365,4909.07,1.51379
9312,45.4756,4915.89,1.51595
9320,45.5146,4903.56,1.51541
9328,45.5537,4905.84,1.51656
9336,45.5928,4919.98,1.51739
9344,45.6318,4924.14,1.52087
9352,45.6709,4915.29,1.52213
9360,45.71,4927.45,1.52067
9368,45.749,4926.38,1.52361
9376,45.7881,4941.43,1.52683
9384,45.8271,4937.13,1.52542
9392,45.8662,4944.48,1.52781
9400,45.9053,4943.77,1.52967
9408,45.9443,4952.29,1.52922
9416,45.9834,4950.65,1.53011
9424,46.0225,4966.77,1.5327
9432,46.0615,4964.73,1.534
9440,46.1006,4963.89,1.53481
9448,46.1396,4968.87,1.53706
9456,46.1787,4974,1.53946
9464,46.2178,4979.16,1.53871
9472,46.2568,4980.06,1.5393
9480,46.2959,4985.67,1.5423
9488,46.335,4985.4,1.54474
9496,46.374,4983.63,1.54497
9504,46.4131,4989.46,1.54479
9512,46.4521,4993.36,1.54879
9520,46.4912,5002.53,1.55004
9528,46.5303,4991.88,1.54986
9536,46.5693,5013.75,1.55073
9544,46.6084,5014.32,1.5533
9552,46.6475,5013.98,1.55243
9560,46.6865,5014.93,1.55422
9568,46.7256,5022.71,1.55587
9576,46.7646,5026.63,1.55806
9584,46.8037,5015.58,1.55885
9592,46.8428,5026.65,1.56168
9600,46.8818,5032.63,1.56328
9608,46.9209,5034.16,1.56234
9616,46.96,5043.5,1.56417
9624,46.999,5048.3,1.5652
9632,47.0381,5053.02,1.56737
9640,47.0771,5046.14,1.56906
9648,47.1162,5060.11,1.56958
9656,47.1553,5057.36,1.57064
9664,47.1943,5062.85,1.57427
9672,47.2334,5059.08,1.57287
9680,47.2725,5065.09,1.57333
9688,47.3115,5076.34,1.57563
9696,47.3506,5069.62,1.57721
9704,47.3896,5069.02,1.57669
9712,47.4287,5085.79,1.57949
9720,47.4678,5086.17,1.58274
9728,47.5068,5082.38,1.58095
9736,47.5459,5093.85,1.58196
9744,47.585,5090.31,1.585207
9752,47.624,5101.62,1.58723
9760,47.6631,5102.66,1.58734
9768,47.7021,5107.85,1.58882
9776,47.7412,5110.06,1.59228
9784,47.7803,5115.56,1.592195
9792,47.8193,5100.83,1.59171
9800,47.8584,5121.91,1.59495
9808,47.8975,5119.98,1.59581
9816,47.9365,5130.62,1.59716
9824,47.9756,5130.97,1.59801
9832,48.0146,5141.27,1.60031
9840,48.0537,5129.57,1.60096
9848,48.0928,5139.22,1.60143
9856,48.1318,5135.9,1.60273
9864,48.1709,5150.47,1.6048
9872,48.21,5152.55,1.60616
9880,48.249,5159.42,1.60617
9888,48.2881,5164.03,1.60906
9896,48.3271,5160.09,1.60916
9904,48.3662,5156.08,1.61167
9912,48.4053,5171.9,1.61054
9920,48.4443,5175.69,1.61334
9928,48.4834,5170.93,1.61468
9936,48.5225,5172.34,1.61642
9944,48.5615,5188.4,1.61784
9952,48.6006,5178.22,1.61798
9960,48.6396,5186.48,1.61921
9968,48.6787,5185.38,1.62088
9976,48.7178,5193.16,1.62319
9984,48.7568,5206.1,1.62477
9992,48.7959,5201.03,1.62593
10000,48.835,5200.47,1.62641
10008,48.874,5215.45,1.63113
10016,48.9131,5206.19,1.6308
10024,48.9521,5212.85,1.63194
10032,48.9912,5216.72,1.63202
10040,49.0303,5228.78,1.63427
10048,49.0693,5219.62,1.63571
10056,49.1084,5230.09,1.63539
10064,49.1475,5232.97,1.63863
10072,49.1865,5240.06,1.64056
10080,49.2256,5238.94,1.63948
10088,49.2646,5245.31,1.6423
10096,49.3037,5244.35,1.64371
10104,49.3428,5249.81,1.64355
10112,49.3818,5249.95,1.64529
10120,49.4209,5252.13,1.64718
10128,49.46,5257.9,1.64787
10136,49.499,5267.72,1.64832
10144,49.5381,5263.64,1.64989
10152,49.5771,5267.14,1.65162
10160,49.6162,5270.57,1.65272
10168,49.6553,5270.49,1.654247
10176,49.6943,5283.68,1.655
10184,49.7334,5284.37,1.65792
10192,49.7725,5283.36,1.65788
10200,49.8115,5280.92,1.65847
10208,49.8506,5299.77,1.661185
10216,49.8896,5291.69,1.6616
10224,49.9287,5298.78,1.6622
10232,49.9678,5313.42,1.66593
10240,50.0068,5298.24,1.66628
10248,50.0459,5311.25,1.66712
10256,50.085,5316.79,1.66722
10264,50.124,5318.38,1.66995
10272,50.1631,5335.69,1.6721
10280,50.2021,5312.91,1.67203
10288,50.2412,5325.55,1.67261
10296,50.2803,5334.95,1.674782
10304,50.3193,5331.85,1.67613
10312,50.3584,5323.18,1.67583
10320,50.3975,5335.85,1.67838
10328,50.4365,5344.52,1.681298
10336,50.4756,5352.33,1.68289
10344,50.5146,5341.69,1.681931
10352,50.5537,5348.73,1.6846
10360,50.5928,5364.1,1.68673
10368,50.6318,5357.21,1.687
10376,50.6709,5359.76,1.68923
10384,50.71,5368.21,1.68867
10392,50.749,5369.55,1.69024
10400,50.7881,5373.49,1.69197
10408,50.8271,5375.83,1.69185
10416,50.8662,5379.38,1.69601
10424,50.9053,5385.12,1.695013
10432,50.9443,5381.62,1.69677
10440,50.9834,5396.14,1.69827
10448,51.0225,5390.84,1.69953
10456,51.0615,5391.26,1.70165
10464,51.1006,5395.25,1.702
10472,51.1396,5394.62,1.70506
10480,51.1787,5410.93,1.705513
10488,51.2178,5389.87,1.70585
10496,51.2568,5416.76,1.70809
10504,51.2959,5424.22,1.70958
10512,51.335,5419.31,1.70974
10520,51.374,5419.73,1.71103
10528,51.4131,5422.95,1.71331
10536,51.4521,5439.16,1.71532
10540,51.47168,430.413,1.74814