File: ASM109_2021_data/MTS/90/MTS_90_6.csv
,Time [s],Load [N],Displacement [mm]
0,0.0078125,-395.94,0.00174165
8,0.046875,-391.714,0.00106931
16,0.0859375,-364.883,0.00179172
24,0.125,-367.431,0.00339746
32,0.1640625,-367.251,0.00463486
40,0.203125,-352.692,0.00548601
48,0.2421875,-357.052,0.00634432
56,0.28125,-340.195,0.00941992
64,0.3203125,-350.328,0.0102782
72,0.359375,-334.594,0.0107145
80,0.3984375,-328.237,0.013175
88,0.4375,-330.266,0.0139725
96,0.4765625,-317.184,0.013901
104,0.515625,-313.349,0.0146735
112,0.5546875,-311.281,0.0170231
120,0.59375,-307.456,0.0180638
128,0.6328125,-309.287,0.0181353
136,0.671875,-285.791,0.0207567
144,0.7109375,-282.942,0.0221944
152,0.75,-288.495,0.0225127
160,0.7890625,-278.672,0.0233209
168,0.828125,-265.098,0.0258672
176,0.8671875,-253.738,0.02743721
184,0.90625,-260.292,0.02768755
192,0.9453125,-244.559,0.0294507
200,0.984375,-238.949,0.0312173
208,1.02344,-240.845,0.0316501
216,1.0625,-229.763,0.0335813
224,1.10156,-230.185,0.0379765
232,1.140625,-223.114,0.0365245
240,1.17969,-215.525,0.0376225
248,1.21875,-216.311,0.0375617
256,1.25781,-191.194,0.04154563
264,1.296875,-203.987,0.0418925
272,1.33594,-207.34,0.0424933
280,1.375,-176.108,0.0447249
288,1.41406,-182.928,0.0468099
296,1.453125,-176.137,0.0451541
304,1.49219,-171.721,0.0482476
312,1.53125,-159.124,0.0506616
320,1.57031,-154.197,0.0522745
328,1.609375,-150.222,0.051173
336,1.64844,-148.122,0.05427
344,1.6875,-133.45,0.056237
352,1.72656,-134.47,0.05543232
360,1.765625,-128.89,0.0575316
368,1.80469,-108.217,0.0595701
376,1.84375,-119.557,0.0609756
384,1.88281,-114.726,0.0600672
392,1.921875,-104.237,0.0635648
400,1.96094,-91.8963,0.0650597
408,2.0,-92.9863,0.06603241
416,2.03906,-87.4375,0.0668228
424,2.078125,-78.4344,0.0687146
432,2.11719,-83.4666,0.0702167
440,2.15625,-70.0968,0.07101059
448,2.19531,-70.7773,0.0720763
456,2.234375,-63.1406,0.0729167
464,2.27344,-50.3073,0.0742114
472,2.3125,-44.3968,0.0756347
480,2.35156,-48.5974,0.0760424
488,2.390625,-34.9903,0.0781775
496,2.42969,-36.2978,0.0792146
504,2.46875,-20.5387,0.0802803
512,2.50781,-17.1934,0.0836885
520,2.546875,-16.064,0.0830555
528,2.58594,-2.30107,0.0853193
536,2.625,-3.50827,0.0845468
544,2.66406,8.76836,0.0864208
552,2.703125,7.18246,0.0894856
560,2.74219,9.61042,0.0900042
568,2.78125,25.6071,0.0912452
576,2.82031,29.9169,0.0932837
584,2.859375,23.7643,0.0934732
592,2.89844,45.8713,0.094285
600,2.9375,42.7548,0.0968778
608,2.97656,49.7927,0.0978649
616,3.015625,49.5801,0.0996566
624,3.05469,45.5793,0.100379
632,3.09375,68.4041,0.102693
640,3.13281,80.2846,0.101656
648,3.171875,70.2318,0.103447
656,3.21094,85.0767,0.1071167
664,3.25,92.7399,0.107585
672,3.28906,95.3227,0.107954
680,3.328125,94.5021,0.107896
688,3.36719,103.411,0.109946
696,3.40625,117.8,0.113128
704,3.44531,111.806,0.113229
712,3.484375,121.432,0.113239
720,3.52344,118.083,0.11668
728,3.5625,139.28,0.116837
736,3.60156,127.697,0.118196
744,3.640625,137.941,0.119369
752,3.67969,143.116,0.123407
760,3.71875,160.743,0.122162
768,3.75781,166.859,0.124508
776,3.796875,167.421,0.126028
784,3.83594,162.233,0.126482
792,3.875,171.33,0.125817
800,3.91406,174.699,0.129508
808,3.953125,182.476,0.131571
816,3.99219,196.542,0.133359
824,4.03125,187.414,0.130792
832,4.07031,208.716,0.13553
840,4.109375,212.015,0.13563
848,4.14844,198.661,0.134711
856,4.1875,225.608,0.139042
864,4.22656,225.208,0.140136
872,4.265625,237.163,0.140448
880,4.30469,235.145,0.142121
888,4.34375,239.551,0.143902
896,4.38281,252.889,0.145862
904,4.421875,245.789,0.145994
912,4.46094,262.993,0.14691
920,4.5,267.949,0.149735
928,4.53906,266.716,0.149292
936,4.578125,268.317,0.150658
944,4.61719,289.516,0.151763
952,4.65625,291.647,0.153501
960,4.69531,288.94,0.154967
968,4.734375,297.351,0.156569
976,4.77344,314.521,0.158708
984,4.8125,306.724,0.159323
992,4.85156,308.821,0.159971
1000,4.890625,331.574,0.163475
1008,4.92969,327.982,0.162388
1016,4.96875,335.259,0.164641
1024,5.00781,332.012,0.165768
1032,5.046875,346.167,0.167398
1040,5.08594,355.061,0.169194
1048,5.125,330.978,0.168149
1056,5.16406,348.919,0.169315
1064,5.203125,377.313,0.172473
1072,5.24219,370.587,0.173875
1080,5.28125,380.763,0.175095
1088,5.32031,373.694,0.175885
1096,5.359375,379.559,0.178159
1104,5.39844,388.543,0.179729
1112,5.4375,387.23,0.180813
1120,5.47656,402.261,0.180527
1128,5.515625,410.045,0.183696
1136,5.55469,409.962,0.183009
1144,5.59375,411.579,0.185459
1152,5.63281,432.205,0.185494
1160,5.671875,433.15,0.188187
1168,5.71094,437.497,0.188731
1176,5.75,437.325,0.190934
1184,5.78906,447.813,0.192879
1192,5.828125,452.214,0.192168
1200,5.86719,461.461,0.194095
1208,5.90625,461.803,0.194353
1216,5.94531,468.62,0.196477
1224,5.984375,479.844,0.198365
1232,6.02344,468.08,0.199059
1240,6.0625,490.529,0.201488
1248,6.10156,496.904,0.202796
1256,6.140625,489.99,0.203336
1264,6.17969,495.4,0.205997
1272,6.21875,502.276,0.206695
1280,6.25781,501.535,0.207267
1288,6.296875,506.785,0.208722
1296,6.33594,521.051,0.209874
1304,6.375,524.359,0.210514
1312,6.41406,532.367,0.212528
1320,6.453125,538.207,0.212181
1328,6.49219,540.933,0.214469
1336,6.53125,540.41,0.217091
1344,6.57031,559.404,0.217398
1352,6.609375,558.255,0.221268
1360,6.64844,560.838,0.2208209
1368,6.6875,568.455,0.221987
1376,6.72656,564.52,0.222437
1384,6.765625,590.1,0.224783
1392,6.80469,583.7,0.226007
1400,6.84375,582.162,0.227079
1408,6.88281,590.578,0.22817
1416,6.921875,600.35,0.229182
1424,6.96094,607.113,0.230927
1432,7.0,614.501,0.230852
1440,7.03906,620.236,0.233467
1448,7.078125,624.13,0.23577
1456,7.11719,615.925,0.236832
1464,7.15625,636.104,0.236768
1472,7.19531,637.921,0.238688
1480,7.234375,642.168,0.240455
1488,7.27344,650.923,0.240437
1496,7.3125,652.245,0.242575
1504,7.35156,656.291,0.2440989
1512,7.390625,669.782,0.244682
1520,7.42969,662.072,0.24509
1528,7.46875,686.35,0.249953
1536,7.50781,673.947,0.2475822
1544,7.546875,684.07,0.249521
1552,7.58594,690.462,0.250196
1560,7.625,683.824,0.2551353
1568,7.66406,703.422,0.253665
1576,7.703125,702.176,0.253576
1584,7.74219,704.643,0.255246
1592,7.78125,726.154,0.258973
1600,7.82031,708.82,0.258722
1608,7.859375,722.167,0.258472
1616,7.89844,738.47,0.261805
1624,7.9375,727.176,0.263976
1632,7.97656,737.441,0.264137
1640,8.015625,750.876,0.26556
1648,8.05469,745.206,0.267706
1656,8.09375,751.552,0.269533
1664,8.13281,747.8,0.268893
1672,8.171875,766.668,0.270356
1680,8.21094,776.546,0.272895
1688,8.25,769.971,0.271765
1696,8.28906,783.271,0.275002
1704,8.328125,788.773,0.27615
1712,8.36719,801.443,0.277512
1720,8.40625,797.56,0.277684
1728,8.44531,801.845,0.280012
1736,8.484375,807.281,0.281038
1744,8.52344,802.062,0.283763
1752,8.5625,809.155,0.282648
1760,8.60156,822.974,0.285677
1768,8.640625,823.881,0.28553
1776,8.67969,828.511,0.2865386
1784,8.71875,828.927,0.289171
1792,8.75781,843.094,0.290129
1800,8.796875,846.247,0.291746
1808,8.83594,843.963,0.29043
1816,8.875,864.397,0.295243
1824,8.91406,864.233,0.295676
1832,8.953125,870.822,0.296559
1840,8.99219,872.355,0.2984333
1848,9.03125,884.785,0.297908
1856,9.07031,881.698,0.3000927
1864,9.109375,890.574,0.301999
1872,9.14844,891.337,0.302514
1880,9.1875,900.532,0.30604
1888,9.22656,902.87,0.30614
1896,9.265625,905.493,0.305711
1904,9.30469,917.319,0.308919
1912,9.34375,916.86,0.309284
1920,9.38281,938.548,0.31114
1928,9.421875,928.552,0.312202
1936,9.46094,931.608,0.313307
1944,9.5,948.433,0.316064
1952,9.53906,940.776,0.315861
1960,9.578125,954.351,0.317738
1968,9.61719,957.625,0.319172
1976,9.65625,960.127,0.31973
1984,9.69531,961.018,0.320166
1992,9.734375,973.984,0.3208065
2000,9.77344,975.781,0.324197
2008,9.8125,981.075,0.324544
2016,9.85156,990.201,0.327308
2024,9.890625,994.263,0.328292
2032,9.92969,992.827,0.330137
2040,9.96875,1012.42,0.330527
2048,10.0078,1006.3,0.332748
2056,10.0469,1008.14,0.333542
2064,10.0859,1020.59,0.334282
2072,10.125,1024.25,0.336299
2080,10.1641,1032,0.338602
2088,10.2031,1036.23,0.3377974
2096,10.2422,1028.24,0.3384769
2104,10.28125,1048,0.34191
2112,10.3203,1047.36,0.342844
2120,10.3594,1048.18,0.34412
2128,10.3984,1053.81,0.344106
2136,10.4375,1068.97,0.3461051
2144,10.4766,1072.3,0.3486228
2152,10.5156,1067.05,0.348405
2160,10.5547,1074,0.3501606
2168,10.59375,1087.47,0.352067
2176,10.6328,1091.81,0.354527
2184,10.6719,1080.51,0.353733
2192,10.7109,1098.96,0.356362
2200,10.75,1101.08,0.356272
2208,10.7891,1114.27,0.359184
2216,10.8281,1106.6,0.358629
2224,10.8672,1125.05,0.360264
2232,10.90625,1124.22,0.361941
2240,10.9453,1123.41,0.361887
2248,10.9844,1130.96,0.364383
2256,11.0234,1141.41,0.366372
2264,11.0625,1147.36,0.366812
2272,11.1016,1140.96,0.367838
2280,11.1406,1150.64,0.369701
2288,11.1797,1151.03,0.37189
2296,11.21875,1153.66,0.371486
2304,11.2578,1170.7,0.373178
2312,11.2969,1176.14,0.37616
2320,11.3359,1173.72,0.375652
2328,11.375,1188.39,0.377229
2336,11.4141,1199.25,0.382118
2344,11.4531,1203.13,0.3804338
2352,11.4922,1201.57,0.382104
2360,11.53125,1197.07,0.382508
2368,11.5703,1215.48,0.386453
2376,11.6094,1204.56,0.385598
2384,11.6484,1221.64,0.387304
2392,11.6875,1230.57,0.388166
2400,11.7266,1233.91,0.389532
2408,11.7656,1246.12,0.391989
2416,11.8047,1250.45,0.3928256
2424,11.84375,1229.74,0.3932333
2432,11.8828,1258.24,0.395215
2440,11.9219,1254.17,0.395851
2448,11.9609,1259.33,0.396706
2456,12.0,1272.9,0.398934
2464,12.0391,1278.1,0.400064
2472,12.0781,1282.5,0.401176
2480,12.1172,1273.09,0.402678
2488,12.15625,1285.83,0.403136
2496,12.1953,1291.33,0.407424
2504,12.2344,1291.58,0.404391
2512,12.2734,1303.46,0.406995
2520,12.3125,1303.46,0.408969
2528,12.3516,1311.03,0.409577
2536,12.3906,1308.16,0.410578
2544,12.4297,1316.05,0.412917
2552,12.46875,1329.87,0.414462
2560,12.5078,1326.32,0.414816
2568,12.5469,1333.46,0.416011
2576,12.5859,1343.41,0.419555
2584,12.625,1350.75,0.418993
2592,12.6641,1343.49,0.420481
2600,12.7031,1353.58,0.4223156
2608,12.7422,1359.53,0.423324
2616,12.78125,1365.19,0.423228
2624,12.8203,1361.68,0.425327
2632,12.8594,1381.79,0.426393
2640,12.8984,1384.74,0.429425
2648,12.9375,1382.89,0.429264
2656,12.9766,1392.86,0.432154
2664,13.0156,1396.47,0.432465
2672,13.0547,1409.41,0.43391
2680,13.09375,1412.72,0.434382
2688,13.1328,1404.69,0.437647
2696,13.1719,1422.91,0.438713
2704,13.2109,1419.79,0.43897
2712,13.25,1417.46,0.441238
2720,13.2891,1429.59,0.442547
2728,13.3281,1433.02,0.44446
2736,13.3672,1432.79,0.442808
2744,13.40625,1438.76,0.444864
2752,13.4453,1451.09,0.448308
2760,13.4844,1448.07,0.448984
2768,13.5234,1456.29,0.449857
2776,13.5625,1465.86,0.451616
2784,13.6016,1468.2,0.451305
2792,13.6406,1467.33,0.45275
2800,13.6797,1483.52,0.455972
2808,13.71875,1472.06,0.455729
2816,13.7578,1482.28,0.458018
2824,13.7969,1492.86,0.458318
2832,13.8359,1501.7,0.4599452
2840,13.875,1513.52,0.46173
2848,13.9141,1500.96,0.46227
2856,13.9531,1506.9,0.462821
2864,13.9922,1515.98,0.46542
2872,14.03125,1526.1,0.466393
2880,14.0703,1517.21,0.467209
2888,14.1094,1535.05,0.469798
2896,14.1484,1535.22,0.471311
2904,14.1875,1540.88,0.472072
2912,14.2266,1535.73,0.471189
2920,14.2656,1547.76,0.473356
2928,14.3047,1551.57,0.476557
2936,14.34375,1553.76,0.475928
2944,14.3828,1557.57,0.478513
2952,14.4219,1575.23,0.479679
2960,14.4609,1567.18,0.480638
2968,14.5,1578.66,0.481528
2976,14.5391,1589.8,0.48205
2984,14.5781,1587.39,0.485562
2992,14.6172,1588.86,0.486499
3000,14.65625,1600.89,0.485852
3008,14.6953,1610.19,0.488566
3016,14.7344,1613.1,0.489042
3024,14.7734,1611.37,0.491259
3032,14.8125,1619.33,0.492636
3040,14.8516,1625.7,0.494113
3048,14.8906,1619.15,0.495526
3056,14.9297,1615.75,0.495325
3064,14.96875,1636.23,0.499177
3072,15.0078,1642.09,0.499878
3080,15.0469,1637.46,0.49966
3088,15.0859,1656.94,0.502174
3096,15.125,1655.76,0.503093
3104,15.1641,1648.29,0.503622
3112,15.2031,1663.67,0.505975
3120,15.2422,1669.6,0.506902
3128,15.28125,1689.84,0.50874
3136,15.3203,1664.96,0.508779
3144,15.3594,1678.9,0.509498
3152,15.3984,1695.7,0.512699
3160,15.4375,1692.66,0.5138433
3168,15.4766,1694.83,0.514787
3176,15.5156,1702.97,0.515163
3184,15.5547,1709.81,0.516801
3192,15.59375,1722.56,0.518392
3200,15.6328,1713.26,0.520577
3208,15.6719,1723.97,0.52165
3216,15.7109,1723.83,0.523385
3224,15.75,1729.55,0.523002
3232,15.7891,1725.99,0.525234
3240,15.8281,1735.67,0.527498
3248,15.8672,1749.98,0.5308485
3256,15.90625,1752.48,0.528789
3264,15.9453,1761.77,0.530566
3272,15.9844,1766.21,0.532233
3280,16.0234,1760.28,0.533381
3288,16.0625,1768.74,0.532887
3296,16.1016,1766.78,0.535898
3304,16.1406,1776.44,0.53637
3312,16.1797,1791.31,0.539203
3320,16.21875,1788.17,0.539478
3328,16.2578,1800.83,0.541087
3336,16.2969,1798.81,0.541409
3344,16.3359,1795.99,0.541649
3352,16.375,1812.81,0.544553
3360,16.4141,1824.94,0.547035
3368,16.4531,1823.37,0.548415
3376,16.4922,1826,0.550332
3384,16.53125,1824.56,0.549735
3392,16.5703,1841.48,0.55202
3400,16.6094,1836.46,0.552485
3408,16.6484,1832.42,0.5528748
3416,16.6875,1847.87,0.555289
3424,16.7266,1847.19,0.557209
3432,16.7656,1848.31,0.555017
3440,16.8047,1865.97,0.559891
3448,16.84375,1863.29,0.560067
3456,16.8828,1867.99,0.5629313
3464,16.9219,1871.76,0.561057
3472,16.9609,1883.61,0.565292
3480,17.0,1882.8,0.566036
3488,17.0391,1887.74,0.566229
3496,17.0781,1890.65,0.566336
3504,17.1172,1901.87,0.569601
3512,17.15625,1905.71,0.572022
3520,17.1953,1909.71,0.572112
3528,17.2344,1914.96,0.573303
3536,17.2734,1929.43,0.576121
3544,17.3125,1921.19,0.576457
3552,17.3516,1922.67,0.578427
3560,17.3906,1947.6,0.581135
3568,17.4297,1928.47,0.580584
3576,17.46875,1931.6,0.580645
3584,17.5078,1953.7,0.581152
3592,17.5469,1955.37,0.584421
3600,17.5859,1956.61,0.584654
3608,17.625,1950.32,0.58676
3616,17.6641,1963.71,0.587436
3624,17.7031,1977.94,0.589921
3632,17.7422,1968.14,0.590154
3640,17.78125,1985.18,0.591345
3648,17.8203,1988.06,0.5941987
3656,17.8594,1992.05,0.595765
3664,17.8984,1998.68,0.595078
3672,17.9375,1999.24,0.597192
3680,17.9766,1999,0.598454
3688,18.0156,2007.77,0.599788
3696,18.0547,2005.25,0.601723
3704,18.09375,2026.45,0.6041801
3712,18.1328,2026.37,0.603025
3720,18.1719,2025.45,0.60305
3728,18.2109,2029.16,0.605013
3736,18.25,2037.42,0.608772
3744,18.2891,2047.57,0.610027
3752,18.3281,2029.72,0.610285
3760,18.3672,2055.31,0.612148
3768,18.40625,2056.54,0.6123805
3776,18.4453,2045.2,0.612663
3784,18.4844,2065.87,0.615678
3792,18.5234,2065.34,0.616522
3800,18.5625,2082.64,0.6191
3808,18.6016,2074.94,0.619025
3816,18.6406,2088.45,0.619183
3824,18.6797,2086.7,0.622169
3832,18.71875,2090.31,0.622866
3840,18.7578,2106.62,0.625209
3848,18.7969,2100.89,0.627158
3856,18.8359,2104.31,0.626639
3864,18.875,2114.76,0.6281054
3872,18.9141,2113.11,0.628481
3880,18.9531,2126.09,0.630898
3888,18.9922,2132.92,0.6320858
3896,19.03125,2124.85,0.632737
3904,19.0703,2129.12,0.634232
3912,19.1094,2132.11,0.635394
3920,19.1484,2140.74,0.636213
3928,19.1875,2147.02,0.638559
3936,19.2266,2155.43,0.640047
3944,19.2656,2162.89,0.642557
3952,19.3047,2162.08,0.643015
3960,19.34375,2157.46,0.643358
3968,19.3828,2177,0.645161
3976,19.4219,2168.79,0.647485
3984,19.4609,2176.21,0.646627
3992,19.5,2193.45,0.65025
4000,19.5391,2186.28,0.651616
4008,19.5781,2199.93,0.652281
4016,19.6172,2196.07,0.652313
4024,19.65625,2212.94,0.655367
4032,19.6953,2212.66,0.656015
4040,19.7344,2209.91,0.656401
4048,19.7734,2223.72,0.658268
4056,19.8125,2219.98,0.660496
4064,19.8516,2233.63,0.66125
4072,19.8906,2228.72,0.660542
4080,19.9297,2231.58,0.663471
4088,19.96875,2251.42,0.66703
4096,20.0078,2244.41,0.665442
4104,20.0469,2253.32,0.666733
4112,20.0859,2255.92,0.669039
4120,20.125,2253.79,0.669587
4128,20.1641,2268.8,0.671325
4136,20.2031,2283.29,0.674679
4144,20.2422,2275.54,0.675155
4152,20.28125,2276.23,0.675226
4160,20.3203,2284.94,0.675663
4168,20.3594,2291.85,0.679568
4176,20.3984,2294.44,0.678395
4184,20.4375,2297.11,0.679092
4192,20.4766,2304.06,0.682104
4200,20.5156,2318.45,0.683842
4208,20.5547,2307.24,0.684897
4216,20.59375,2310.21,0.68446
4224,20.6328,2324.22,0.685608
4232,20.6719,2322.41,0.689024
4240,20.7109,2328.12,0.690751
4248,20.75,2328.15,0.689896
4256,20.7891,2332.01,0.69329
4264,20.8281,2344.42,0.692775
4272,20.8672,2341.98,0.694778
4280,20.90625,2343.55,0.695143
4288,20.9453,2356.23,0.6978786
4296,20.9844,2357.99,0.698175
4304,21.0234,2358.92,0.699291
4312,21.0625,2377.26,0.701076
4320,21.1016,2375.93,0.703322
4328,21.1406,2374.52,0.703189
4336,21.1797,2390.99,0.70585
4344,21.21875,2384.98,0.706186
4352,21.2578,2394.5,0.707427
4360,21.2969,2395.88,0.70875
4368,21.3359,2411.39,0.709881
4376,21.375,2406.08,0.712245
4384,21.4141,2402.86,0.713271
4392,21.4531,2409.81,0.713561
4400,21.4922,2428.53,0.716236
4408,21.53125,2416.23,0.716733
4416,21.5703,2423.37,0.716972
4424,21.6094,2431.74,0.7200551
4432,21.6484,2427.21,0.720717
4440,21.6875,2442.4,0.722523
4448,21.7266,2444.51,0.722276
4456,21.7656,2456.54,0.725394
4464,21.8047,2451.76,0.725441
4472,21.84375,2454.47,0.727419
4480,21.8828,2463.13,0.727851
4488,21.9219,2472.2,0.729725
4496,21.9609,2477.38,0.732604
4504,22.0,2472.05,0.732912
4512,22.0391,2481.75,0.733026
4520,22.0781,2493.13,0.7348609
4528,22.1172,2486.61,0.736263
4536,22.15625,2493.68,0.737261
4544,22.1953,2495.29,0.738122
4552,22.2344,2508.1,0.7398
4560,22.2734,2506.82,0.741996
4568,22.3125,2511.12,0.742675
4576,22.3516,2522.72,0.744967
4584,22.3906,2533.48,0.744567
4592,22.4297,2505.42,0.747378
4600,22.46875,2537.37,0.749302
4608,22.5078,2535.53,0.750203
4616,22.5469,2539.4,0.751169
4624,22.5859,2546.07,0.752445
4632,22.625,2542.91,0.752263
4640,22.6641,2562.66,0.756837
4648,22.7031,2550.63,0.755811
4656,22.7422,2563.87,0.75585
4664,22.78125,2562.83,0.759358
4672,22.8203,2566.05,0.76017
4680,22.8594,2569.37,0.760156
4688,22.8984,2587.92,0.7645905
4696,22.9375,2586.57,0.764086
4704,22.9766,2586.96,0.764694
4712,23.0156,2582.12,0.766332
4720,23.0547,2598.47,0.767419
4728,23.09375,2607.63,0.76895
4736,23.1328,2603.61,0.768857
4744,23.1719,2613.89,0.772376
4752,23.2109,2627.37,0.772276
4760,23.25,2619.95,0.7734561
4768,23.2891,2607.71,0.773005
4776,23.3281,2626.45,0.776196
4784,23.3672,2630.06,0.7787919
4792,23.40625,2640.05,0.778105
4800,23.4453,2635.28,0.780001
4808,23.4844,2652.42,0.781467
4816,23.5234,2649.96,0.783577
4824,23.5625,2655.83,0.78382
4832,23.6016,2667.24,0.7854116
4840,23.6406,2666.77,0.787514
4848,23.6797,2665.28,0.788423
4856,23.71875,2670.28,0.788376
4864,23.7578,2679.99,0.790633
4872,23.7969,2689.31,0.793397
4880,23.8359,2678.53,0.793691
4888,23.875,2695.94,0.794756
4896,23.9141,2691.4,0.796502
4904,23.9531,2704.71,0.797167
4912,23.9922,2702.05,0.797893
4920,24.03125,2697.23,0.798547
4928,24.0703,2724.2,0.802599
4936,24.1094,2726.32,0.8031
4944,24.1484,2709.48,0.802664
4952,24.1875,2729.56,0.805682
4960,24.2266,2734.71,0.806587
4968,24.2656,2736.63,0.807348
4976,24.3047,2734.18,0.809119
4984,24.34375,2745.43,0.809551
4992,24.3828,2744.01,0.812448
5000,24.4219,2753.33,0.812176
5008,24.4609,2761.78,0.813496
5016,24.5,2757.28,0.815227
5024,24.5391,2761.35,0.816633
5032,24.5781,2779.37,0.817552
5040,24.6172,2782.6,0.819923
5048,24.65625,2784.25,0.822233
5056,24.6953,2780.21,0.8216393
5064,24.7344,2793.06,0.822809
5072,24.7734,2793.26,0.825355
5080,24.8125,2797.45,0.825319
5088,24.8516,2795.82,0.826457
5096,24.8906,2812.4,0.828449
5104,24.9297,2807.69,0.828978
5112,24.96875,2809.96,0.83176
5120,25.0078,2818.3,0.8313024
5128,25.0469,2815.84,0.833037
5136,25.0859,2816.96,0.836002
5144,25.125,2823.13,0.836231
5152,25.1641,2838.64,0.837961
5160,25.2031,2844.79,0.839406
5168,25.2422,2838.08,0.839864
5176,25.28125,2843.56,0.839177
5184,25.3203,2847.86,0.842729
5192,25.3594,2861.05,0.84456
5200,25.3984,2862.78,0.845722
5208,25.4375,2863.07,0.84565
5216,25.4766,2865.86,0.848815
5224,25.5156,2881.26,0.849921
5232,25.5547,2879.61,0.849931
5240,25.59375,2879.88,0.851601
5248,25.6328,2883.58,0.853422
5256,25.6719,2897.13,0.854462
5264,25.7109,2892.29,0.854824
5272,25.75,2900.28,0.856222
5280,25.7891,2900.29,0.857005
5288,25.8281,2895.75,0.8581996
5296,25.8672,2912.47,0.859358
5304,25.90625,2913.77,0.862316
5312,25.9453,2918.73,0.863761
5320,25.9844,2922.89,0.864129
5328,26.0234,2929.15,0.866193
5336,26.0625,2933.16,0.867702
5344,26.1016,2930.98,0.86802
5352,26.1406,2935.63,0.869647
5360,26.1797,2939.42,0.872684
5368,26.21875,2947.02,0.872573
5376,26.2578,2941.5,0.87406
5384,26.2969,2963.48,0.874243
5392,26.3359,2960.7,0.877218
5400,26.375,2969.71,0.878166
5408,26.4141,2962.8,0.878892
5416,26.4531,2980.34,0.88028
5424,26.4922,2986.44,0.881946
5432,26.53125,2981.24,0.882486
5440,26.5703,2982.26,0.884314
5448,26.6094,2991.45,0.887192
5456,26.6484,2989.58,0.887532
5464,26.6875,3004.64,0.887089
5472,26.7266,3002.21,0.889242
5480,26.7656,3013.97,0.891505
5488,26.8047,3014.59,0.893329
5496,26.84375,3013.04,0.89309
5504,26.8828,3021.26,0.896047
5512,26.9219,3027.15,0.895972
5520,26.9609,3021.63,0.896494
5528,27.0,3045.27,0.898876
5536,27.0391,3041.54,0.900779
5544,27.0781,3041.39,0.902503
5552,27.1172,3040.28,0.902445
5560,27.15625,3056.24,0.904856
5568,27.1953,3060.76,0.907012
5576,27.2344,3052.71,0.906293
5584,27.2734,3066.5,0.90826
5592,27.3125,3071.67,0.91105
5600,27.3516,3064.49,0.911586
5608,27.3906,3072.23,0.911926
5616,27.4297,3073.23,0.913972
5624,27.46875,3098.22,0.915906
5632,27.5078,3084.2,0.91518
5640,27.5469,3093.3,0.91483
5648,27.5859,3107.17,0.919036
5656,27.625,3107.36,0.922616
5664,27.6641,3102.84,0.919386
5672,27.7031,3111.88,0.923542
5680,27.7422,3125.49,0.923685
5688,27.78125,3130.91,0.923957
5696,27.8203,3123.61,0.925502
5704,27.8594,3129.35,0.92833
5712,27.8984,3138.28,0.928438
5720,27.9375,3124,0.930766
5728,27.9766,3150.37,0.930841
5736,28.0156,3142.89,0.9328115
5744,28.0547,3139.16,0.934918
5752,28.09375,3153.3,0.934521
5760,28.1328,3152.12,0.934628
5768,28.1719,3159.46,0.939127
5776,28.2109,3158.42,0.939989
5784,28.25,3159.05,0.939142
5792,28.2891,3174.74,0.941985
5800,28.3281,3169.39,0.943358
5808,28.3672,3180.7,0.944141
5816,28.40625,3189.26,0.944921
5824,28.4453,3197.48,0.945615
5832,28.4844,3190.07,0.948329
5840,28.5234,3193.16,0.949169
5848,28.5625,3203.34,0.950171
5856,28.6016,3195.15,0.951776
5864,28.6406,3211.25,0.952535
5872,28.6797,3214.35,0.953879
5880,28.71875,3216.53,0.956311
5888,28.7578,3227.3,0.960267
5896,28.7969,3228.42,0.958289
5904,28.8359,3222.76,0.959026
5912,28.875,3240.87,0.962784
5920,28.9141,3238.2,0.963814
5928,28.9531,3236.56,0.963113
5936,28.9922,3247.82,0.964615
5944,29.03125,3243.65,0.965785
5952,29.0703,3250.12,0.966572
5960,29.1094,3258.66,0.968528
5968,29.1484,3279.57,0.971653
5976,29.1875,3271.35,0.970663
5984,29.2266,3270.43,0.972723
5992,29.2656,3273.4,0.9744823
6000,29.3047,3296.63,0.977129
6008,29.34375,3275.01,0.976084
6016,29.3828,3286.96,0.978388
6024,29.4219,3291.81,0.978863
6032,29.4609,3300.9,0.981588
6040,29.5,3302.03,0.981402
6048,29.5391,3307.15,0.983537
6056,29.5781,3306.69,0.986484
6064,29.6172,3320.96,0.987128
6072,29.65625,3312.58,0.988065
6080,29.6953,3320.58,0.989553
6088,29.7344,3326.76,0.9905
6096,29.7734,3332.98,0.991845
6104,29.8125,3334.97,0.991799
6112,29.8516,3342.83,0.994699
6120,29.8906,3350.83,0.995775
6128,29.9297,3336.69,0.996065
6136,29.96875,3359.06,0.997578
6144,30.0078,3362.01,1.00053
6152,30.0469,3359.18,1.00072
6160,30.0859,3356.55,1.00224
6168,30.125,3372.96,1.00277
6176,30.1641,3382.71,1.00562
6184,30.2031,3373.56,1.00635
6192,30.2422,3377.52,1.00767
6200,30.28125,3392.66,1.01009
6208,30.3203,3388.65,1.01095
6216,30.3594,3387.88,1.01001
6224,30.3984,3399.17,1.01263
6232,30.4375,3406.95,1.01504
6240,30.4766,3411.55,1.01546
6248,30.5156,3411.27,1.01557
6256,30.5547,3415.57,1.01665
6264,30.59375,3423.25,1.01992
6272,30.6328,3412.28,1.01998
6280,30.6719,3419.79,1.02232
6288,30.7109,3427.83,1.02299
6296,30.75,3437.11,1.024822
6304,30.7891,3432.17,1.02352
6312,30.8281,3451.95,1.02772
6320,30.8672,3451.87,1.02759
6328,30.90625,3453.67,1.03039
6336,30.9453,3452.54,1.029557
6344,30.9844,3459.06,1.03242
6352,31.0234,3460.8,1.034081
6360,31.0625,3472,1.03482
6368,31.1016,3471.38,1.03597
6376,31.1406,3483.61,1.038512
6384,31.1797,3475.23,1.03916
6392,31.21875,3476.43,1.0396
6400,31.2578,3494.84,1.04176
6408,31.2969,3495.55,1.0435
6416,31.3359,3483.86,1.04269
6424,31.375,3506.98,1.04355
6432,31.4141,3507.48,1.04589
6440,31.4531,3507.34,1.04778
6448,31.4922,3509.23,1.04846
6456,31.53125,3519.51,1.04884
6464,31.5703,3521.23,1.053611
6472,31.6094,3521.86,1.05278
6480,31.6484,3510.77,1.05376
6488,31.6875,3535.16,1.05329
6496,31.7266,3543.39,1.05724
6504,31.7656,3542.82,1.05817
6512,31.8047,3548.34,1.05816
6520,31.84375,3543.28,1.05989
6528,31.8828,3554.64,1.06316
6536,31.9219,3545.3,1.06089
6544,31.9609,3562.96,1.06658
6552,32.0,3568.55,1.0658
6560,32.0391,3579.78,1.0675
6568,32.0781,3571.5,1.0673
6576,32.1172,3578.11,1.070087
6584,32.15625,3583.56,1.071403
6592,32.1953,3585.92,1.06972
6600,32.2344,3590.15,1.0726
6608,32.2734,3588.15,1.076442
6616,32.3125,3597.55,1.07483
6624,32.3516,3597.68,1.07843
6632,32.3906,3607.57,1.07901
6640,32.4297,3617.11,1.081
6648,32.46875,3618.24,1.08096
6656,32.5078,3615.56,1.08238
6664,32.5469,3621.44,1.08438
6672,32.5859,3630.03,1.08704
6680,32.625,3617.07,1.08588
6688,32.6641,3638.6,1.08717
6696,32.7031,3640,1.09119
6704,32.7422,3638.25,1.09148
6712,32.78125,3650.2,1.09189
6720,32.8203,3647.07,1.093483
6728,32.8594,3653.94,1.09265
6736,32.8984,3653.07,1.09545
6744,32.9375,3658.6,1.09589
6752,32.9766,3673.25,1.09994
6760,33.0156,3675.3,1.10085
6768,33.0547,3663.54,1.09902
6776,33.09375,3688.17,1.10246
6784,33.1328,3679.05,1.10383
6792,33.1719,3689.76,1.10429
6800,33.2109,3686.97,1.10502
6808,33.25,3695.32,1.10836
6816,33.2891,3700.09,1.10927
6824,33.3281,3699.64,1.11059
6832,33.3672,3709.56,1.11102
6840,33.40625,3717.25,1.11355
6848,33.4453,3712.72,1.11467
6856,33.4844,3721.91,1.11665
6864,33.5234,3723.92,1.11548
6872,33.5625,3740.52,1.11893
6880,33.6016,3731.45,1.11947
6888,33.6406,3734.78,1.11956
6896,33.6797,3738.52,1.12296
6904,33.71875,3750.63,1.12474
6912,33.7578,3750.04,1.12441
6920,33.7969,3753.6,1.12556
6928,33.8359,3753.87,1.12789
6936,33.875,3751.01,1.12833
6944,33.9141,3753.26,1.12956
6952,33.9531,3769.85,1.13144
6960,33.9922,3772.96,1.13256
6968,34.03125,3768.2,1.13148
6976,34.0703,3779.19,1.13455
6984,34.1094,3788.44,1.13574
6992,34.1484,3780.06,1.13799
7000,34.1875,3781.07,1.13684
7008,34.2266,3788,1.13884
7016,34.2656,3798.82,1.14085
7024,34.3047,3803.61,1.14322
7032,34.34375,3800.11,1.14339
7040,34.3828,3820.95,1.14614
7048,34.4219,3810.67,1.14633
7056,34.4609,3812.83,1.14693
7064,34.5,3819.15,1.14801
7072,34.5391,3819.75,1.15129
7080,34.5781,3831.64,1.15297
7088,34.6172,3828.16,1.15371
7096,34.65625,3841.26,1.15461
7104,34.6953,3843.76,1.15599
7112,34.7344,3840.71,1.1561
7120,34.7734,3839.82,1.15691
7128,34.8125,3840.28,1.15991
7136,34.8516,3851.78,1.16133
7144,34.8906,3866.48,1.16305
7152,34.9297,3848.07,1.16292
7160,34.96875,3881.24,1.16447
7168,35.0078,3866.07,1.1665
7176,35.0469,3863.11,1.16627
7184,35.0859,3882.16,1.16876
7192,35.125,3878.72,1.17012
7200,35.1641,3877.78,1.17066
7208,35.2031,3899.42,1.17177
7216,35.2422,3897.11,1.17427
7224,35.28125,3893.95,1.17513
7232,35.3203,3902.95,1.17607
7240,35.3594,3917.73,1.17807
7248,35.3984,3915.51,1.1797
7256,35.4375,3899.36,1.17876
7264,35.4766,3910.76,1.18018
7272,35.5156,3927.22,1.183691
7280,35.5547,3927.41,1.18535
7288,35.59375,3931.92,1.18678
7296,35.6328,3928.28,1.18678
7304,35.6719,3926.75,1.18844
7312,35.7109,3943.26,1.1899
7320,35.75,3935.37,1.189245
7328,35.7891,3944.35,1.19138
7336,35.8281,3954.15,1.19336
7344,35.8672,3951.88,1.19463
7352,35.90625,3961.12,1.19572
7360,35.9453,3953.91,1.19737
7368,35.9844,3961.89,1.19962
7376,36.0234,3964.52,1.19923
7384,36.0625,3977.34,1.20096
7392,36.1016,3985.85,1.20184
7400,36.1406,3975.73,1.20288
7408,36.1797,3986.4,1.20502
7416,36.21875,3991.16,1.20632
7424,36.2578,3998.38,1.20905
7432,36.2969,3994.94,1.20867
7440,36.3359,3992.33,1.20876
7448,36.375,4012.38,1.2126
7456,36.4141,4006.27,1.21239
7464,36.4531,4006.28,1.21392
7472,36.4922,4020.04,1.21638
7480,36.53125,4012.5,1.21736
7488,36.5703,4031.81,1.21853
7496,36.6094,4028.42,1.21987
7504,36.6484,4036.25,1.21958
7512,36.6875,4037.81,1.22179
7520,36.7266,4032.97,1.22321
7528,36.7656,4032.96,1.22383
7536,36.8047,4055.64,1.225698
7544,36.84375,4054.28,1.22793
7552,36.8828,4057.73,1.22791
7560,36.9219,4062.01,1.23051
7568,36.9609,4060.63,1.23045
7576,37.0,4065.12,1.23147
7584,37.0391,4063.94,1.23245
7592,37.0781,4072.76,1.23598
7600,37.1172,4076.25,1.23744
7608,37.15625,4074.23,1.2357
7616,37.1953,4082.04,1.2376
7624,37.2344,4082.05,1.23921
7632,37.2734,4099.53,1.24268
7640,37.3125,4084.5,1.24177
7648,37.3516,4098.69,1.24519
7656,37.3906,4098.54,1.24716
7664,37.4297,4108.22,1.24678
7672,37.46875,4114.59,1.24726
7680,37.5078,4113.02,1.25018
7688,37.5469,4129.28,1.251862
7696,37.5859,4118.88,1.25276
7704,37.625,4126.92,1.25285
7712,37.6641,4134.76,1.25532
7720,37.7031,4135.09,1.25751
7728,37.7422,4124.76,1.256268
7736,37.78125,4148.18,1.25954
7744,37.8203,4135.27,1.25897
7752,37.8594,4146.09,1.26036
7760,37.8984,4150.26,1.26268
7768,37.9375,4146.36,1.26395
7776,37.9766,4159.34,1.26571
7784,38.0156,4160.77,1.26521
7792,38.0547,4175.75,1.26753
7800,38.09375,4183.92,1.26997
7808,38.1328,4173.75,1.27051
7816,38.1719,4171.43,1.27083
7824,38.2109,4192.18,1.27337
7832,38.25,4183.33,1.27304
7840,38.2891,4191.76,1.27593
7848,38.3281,4196.29,1.27532
7856,38.3672,4200.88,1.27776
7864,38.40625,4197.78,1.2785
7872,38.4453,4209.09,1.28043
7880,38.4844,4217.63,1.282897
7888,38.5234,4220.32,1.28317
7896,38.5625,4213.68,1.28465
7904,38.6016,4230.06,1.28528
7912,38.6406,4226.21,1.28885
7920,38.6797,4228.65,1.28891
7928,38.71875,4227.57,1.28883
7936,38.7578,4245.73,1.28984
7944,38.7969,4231.87,1.29337
7952,38.8359,4235.9,1.29528
7960,38.875,4249.7,1.29314
7968,38.9141,4249.94,1.29606
7976,38.9531,4249.81,1.29855
7984,38.9922,4266.34,1.2991
7992,39.03125,4260.8,1.29862
8000,39.0703,4264.2,1.30393
8008,39.1094,4274.26,1.30183
8016,39.1484,4274.39,1.30342
8024,39.1875,4266.31,1.30591
8032,39.2266,4289.51,1.30786
8040,39.2656,4285.87,1.307795
8048,39.3047,4287.87,1.30853
8056,39.34375,4293.34,1.3102
8064,39.3828,4294.08,1.31222
8072,39.4219,4283.74,1.31193
8080,39.4609,4315.58,1.31303
8088,39.5,4309.69,1.31664
8096,39.5391,4304.97,1.31806
8104,39.5781,4316.09,1.31745
8112,39.6172,4313.75,1.32015
8120,39.65625,4318.63,1.32146
8128,39.6953,4337.31,1.32385
8136,39.7344,4320.96,1.32138
8144,39.7734,4329.21,1.32566
8152,39.8125,4341.68,1.32735
8160,39.8516,4335.2,1.32635
8168,39.8906,4353.05,1.32932
8176,39.9297,4346.51,1.32982
8184,39.96875,4350.66,1.332
8192,40.0078,4350.19,1.33351
8200,40.0469,4362.63,1.33408
8208,40.0859,4374.35,1.335572
8216,40.125,4363.2,1.33531
8224,40.1641,4375.21,1.33863
8232,40.2031,4376.27,1.3401
8240,40.2422,4364.73,1.34104
8248,40.28125,4383.93,1.34205
8256,40.3203,4380.02,1.34355
8264,40.3594,4386.39,1.34609
8272,40.3984,4400.8,1.34501
8280,40.4375,4391.68,1.34541
8288,40.4766,4399.46,1.34951
8296,40.5156,4400.15,1.35013
8304,40.5547,4406.83,1.34923
8312,40.59375,4404.65,1.3523
8320,40.6328,4424.9,1.35326
8328,40.6719,4424.18,1.35543
8336,40.7109,4427.22,1.35677
8344,40.75,4426.45,1.35599
8352,40.7891,4428.4,1.35926
8360,40.8281,4432.05,1.3595
8368,40.8672,4440.31,1.36127
8376,40.90625,4437.53,1.36184
8384,40.9453,4450.89,1.36375
8392,40.9844,4450.34,1.36469
8400,41.0234,4452.01,1.36549
8408,41.0625,4451.66,1.36677
8416,41.1016,4468.44,1.368978
8424,41.1406,4452.82,1.36976
8432,41.1797,4472.65,1.372683
8440,41.21875,4461.97,1.37379
8448,41.2578,4471.12,1.37371
8456,41.2969,4470.46,1.375376
8464,41.3359,4477.64,1.37653
8472,41.375,4488.73,1.380254
8480,41.4141,4475.11,1.37744
8488,41.4531,4498.41,1.38054
8496,41.4922,4501.85,1.38304
8504,41.53125,4491.35,1.3832
8512,41.5703,4504.19,1.3852
8520,41.6094,4506.15,1.38732
8528,41.6484,4507.88,1.38615
8536,41.6875,4518.4,1.38892
8544,41.7266,4518.39,1.38816
8552,41.7656,4525.15,1.39099
8560,41.8047,4536.01,1.3921
8568,41.84375,4522.81,1.39316
8576,41.8828,4525.14,1.39625
8584,41.9219,4527.48,1.39785
8592,41.9609,4543.99,1.39593
8600,42.0,4544.7,1.39796
8608,42.0391,4557.18,1.39948
8616,42.0781,4547.84,1.4011
8624,42.1172,4551.13,1.40416
8632,42.15625,4565.03,1.40352
8640,42.1953,4563.37,1.40692
8648,42.2344,4552.72,1.40603
8656,42.2734,4569.02,1.40666
8664,42.3125,4579.05,1.40987
8672,42.3516,4577.04,1.41073
8680,42.3906,4579.84,1.41285
8688,42.4297,4578.59,1.41155
8696,42.46875,4590.57,1.41596
8704,42.5078,4588.33,1.41443
8712,42.5469,4594.12,1.41665
8720,42.5859,4604.86,1.4192
8728,42.625,4597.44,1.41914
8736,42.6641,4611.99,1.42081
8744,42.7031,4600.9,1.42182
8752,42.7422,4607.75,1.42277
8760,42.78125,4618.45,1.42611
8768,42.8203,4610.16,1.42725
8776,42.8594,4619.55,1.428591
8784,42.8984,4633.25,1.43014
8792,42.9375,4625.24,1.42956
8800,42.9766,4631.12,1.43251
8808,43.0156,4641.51,1.432482
8816,43.0547,4632.2,1.43496
8824,43.09375,4648.94,1.43572
8832,43.1328,4645.7,1.43531
8840,43.1719,4647.05,1.43911
8848,43.2109,4664.77,1.439209
8856,43.25,4639.69,1.43943
8864,43.2891,4658.73,1.4447
8872,43.3281,4669.51,1.44192
8880,43.3672,4673.29,1.44597
8888,43.40625,4659.05,1.44498
8896,43.4453,4681.33,1.44694
8904,43.4844,4694.12,1.44982
8912,43.5234,4674.69,1.44942
8920,43.5625,4679.63,1.45093
8928,43.6016,4690.42,1.45282
8936,43.6406,4696.35,1.45367
8944,43.6797,4702.53,1.45211
8952,43.71875,4705.65,1.45523
8960,43.7578,4700.14,1.4586
8968,43.7969,4710.66,1.4593
8976,43.8359,4706.89,1.458
8984,43.875,4718.83,1.46145
8992,43.9141,4718.48,1.46307
9000,43.9531,4712.1,1.46438
9008,43.9922,4738.16,1.46516
9016,44.03125,4734.45,1.46626
9024,44.0703,4737.23,1.46826
9032,44.1094,4735.75,1.46874
9040,44.1484,4744.17,1.471746
9048,44.1875,4745.3,1.47257
9056,44.2266,4743.48,1.47136
9064,44.2656,4753.27,1.47345
9072,44.3047,4767.61,1.47671
9080,44.34375,4749,1.47734
9088,44.3828,4763.65,1.47807
9096,44.4219,4765.38,1.48057
9104,44.4609,4766.38,1.48038
9112,44.5,4774.97,1.48373
9120,44.5391,4760.48,1.48277
9128,44.5781,4782.52,1.48552
9136,44.6172,4785.34,1.48653
9144,44.65625,4789.88,1.48829
9152,44.6953,4781.28,1.48921
9160,44.7344,4796.71,1.49094
9168,44.7734,4795.42,1.49203
9176,44.8125,4793.41,1.49274
9184,44.8516,4812.82,1.49338
9192,44.8906,4813.57,1.49641
9200,44.9297,4808.64,1.49485
9208,44.96875,4823.1,1.49801
9216,45.0078,4823.04,1.4989
9224,45.0469,4817.51,1.49992
9232,45.0859,4827.49,1.50257
9240,45.125,4825.18,1.50254
9248,45.1641,4833.1,1.50379
9256,45.2031,4837.96,1.50724
9264,45.2422,4838.84,1.50737
9272,45.28125,4846.46,1.50886
9280,45.3203,4853.93,1.50997
9288,45.3594,4847.3,1.51186
9296,45.3984,4851.79,1.513145
9304,45.4375,4860.35,1.514461
9312,45.4766,4865.81,1.51662
9320,45.5156,4859.41,1.51637
9328,45.5547,4869.85,1.51842
9336,45.59375,4875.93,1.51997
9344,45.6328,4888.15,1.52089
9352,45.6719,4879.38,1.52028
9360,45.7109,4881.04,1.52191
9368,45.75,4877.28,1.52272
9376,45.7891,4898.88,1.52489
9384,45.8281,4899.44,1.52563
9392,45.8672,4901.33,1.52937
9400,45.90625,4911.26,1.5296
9408,45.9453,4907.71,1.53032
9416,45.9844,4909.72,1.53217
9424,46.0234,4931.94,1.53397
9432,46.0625,4917.85,1.53439
9440,46.1016,4921.02,1.536988
9448,46.1406,4930.3,1.53668
9456,46.1797,4924.76,1.53853
9464,46.21875,4923.94,1.54086
9472,46.2578,4938.07,1.53972
9480,46.2969,4950.76,1.54297
9488,46.3359,4936.74,1.54451
9496,46.375,4948.63,1.54387
9504,46.4141,4951.85,1.5465
9512,46.4531,4958.37,1.54754
9520,46.4922,4951.88,1.54903
9528,46.53125,4958.56,1.55015
9536,46.5703,4963.39,1.55158
9544,46.6094,4967.63,1.55269
9552,46.6484,4965.97,1.552484
9560,46.6875,4981.89,1.55743
9568,46.7266,4983.56,1.55749
9576,46.7656,4977.15,1.55871
9584,46.8047,4988.74,1.55923
9592,46.84375,4995.71,1.56108
9600,46.8828,4989.6,1.56373
9608,46.9219,4984.5,1.56332
9616,46.9609,4998.67,1.56345
9624,47.0,4995.16,1.56625
9632,47.0391,4994.83,1.56775
9640,47.0781,5007.75,1.56915
9648,47.1172,5011.36,1.5711
9656,47.15625,5021.67,1.57206
9664,47.1953,5018.94,1.57217
9672,47.2344,5018.03,1.57433
9680,47.2734,5028.18,1.57607
9688,47.3125,5034.74,1.577214
9696,47.3516,5036.13,1.57798
9704,47.3906,5034.85,1.57952
9712,47.4297,5048.12,1.57975
9720,47.46875,5047.85,1.58283
9728,47.5078,5042.8,1.58124
9736,47.5469,5052.46,1.58479
9744,47.5859,5058.41,1.58543
9752,47.625,5043.72,1.58661
9760,47.6641,5070.81,1.58815
9768,47.7031,5065.63,1.58944
9776,47.7422,5059.57,1.59052
9784,47.78125,5084.03,1.59165
9792,47.8203,5074.45,1.59213
9800,47.8594,5082.89,1.5934
9808,47.8984,5083.59,1.59643
9816,47.9375,5077.11,1.59587
9824,47.9766,5086.84,1.598568
9832,48.0156,5093.42,1.60064
9840,48.0547,5086.55,1.60034
9848,48.09375,5101.47,1.60279
9856,48.1328,5106.46,1.604
9864,48.1719,5108.3,1.60551
9872,48.2109,5104.82,1.60555
9880,48.25,5119.38,1.60602
9888,48.2891,5123.37,1.60947
9896,48.3281,5127.86,1.61086
9904,48.3672,5127.98,1.6099
9912,48.40625,5120.58,1.61367
9920,48.4453,5123.57,1.61398
9928,48.4844,5142.74,1.61592
9936,48.5234,5135.78,1.61627
9944,48.5625,5146.48,1.61861
9952,48.6016,5138.81,1.61975
9960,48.6406,5142.17,1.62079
9968,48.6797,5143.26,1.62093
9976,48.71875,5159.93,1.62378
9984,48.7578,5155.63,1.62456
9992,48.7969,5163.04,1.62465
10000,48.8359,5156.45,1.62718
10008,48.875,5169.72,1.62927
10016,48.9141,5168.65,1.62995
10024,48.9531,5178.43,1.63101
10032,48.9922,5181.13,1.6317
10040,49.03125,5176.33,1.635257
10048,49.0703,5183.56,1.632961
10056,49.1094,5193.31,1.63727
10064,49.1484,5187.43,1.63688
10072,49.1875,5198.29,1.63844
10080,49.2266,5210.67,1.63976
10088,49.2656,5199.78,1.64118
10096,49.3047,5209.82,1.64256
10104,49.34375,5201.6,1.64307
10112,49.3828,5211.1,1.64488
10120,49.4219,5223.73,1.64605
10128,49.4609,5210.24,1.64707
10136,49.5,5219.15,1.64927
10144,49.5391,5222.3,1.65022
10152,49.5781,5217.84,1.651361
10160,49.6172,5224.37,1.65229
10168,49.65625,5242.36,1.65212
10176,49.6953,5240.66,1.65747
10184,49.7344,5247.45,1.6576
10192,49.7734,5254.92,1.65811
10200,49.8125,5247.95,1.65985
10208,49.8516,5259.23,1.66125
10216,49.8906,5254.8,1.662451
10224,49.9297,5258.51,1.66343
10232,49.96875,5268.95,1.66434
10240,50.0078,5269.99,1.66712
10248,50.0469,5257.52,1.66548
10256,50.0859,5282.99,1.66996
10264,50.125,5276.32,1.6699
10272,50.1641,5283.05,1.67079
10280,50.2031,5278.93,1.67177
10288,50.2422,5294.05,1.67343
10296,50.28125,5281.58,1.67607
10304,50.3203,5295.05,1.67584
10312,50.3594,5287.36,1.67596
10320,50.3984,5300.72,1.67899
10328,50.4375,5297.28,1.68168
10336,50.4766,5308.76,1.6804
10344,50.5156,5310.45,1.68274
10352,50.5547,5307.3,1.68523
10360,50.59375,5316.42,1.68563
10368,50.6328,5312.94,1.68628
10376,50.6719,5314.31,1.68874
10384,50.7109,5324.64,1.6912
10392,50.75,5330.03,1.68935
10400,50.7891,5322.85,1.69279
10408,50.8281,5343.61,1.69318
10416,50.8672,5345.93,1.69459
10424,50.90625,5327.29,1.69528
10432,50.9453,5348.59,1.696161
10440,50.9844,5351.28,1.69883
10448,51.0234,5341.57,1.69917
10456,51.0625,5355.96,1.70066
10464,51.1016,5337.08,1.70274
10472,51.1406,5359.58,1.70375
10480,51.1797,5373.52,1.70507
10488,51.21875,5359.36,1.70609
10496,51.2578,5373.02,1.70888
10504,51.2969,5378.97,1.70989
10512,51.3359,5373.13,1.70978
10520,51.375,5387.02,1.71183
10528,51.4141,5378.44,1.71396
10536,51.4531,5379.47,1.71332
10544,51.4922,5389.22,1.71303
10552,51.53125,5388.8,1.71689
10560,51.5703,5393.86,1.71933
10568,51.6094,5392.45,1.718241
10576,51.6484,5406.98,1.72056
10584,51.6875,5406.46,1.7222
10592,51.7266,5392.69,1.72397
10600,51.7656,5418.37,1.72353
10608,51.8047,5417.28,1.72593
10616,51.84375,5417.04,1.727314
10624,51.8828,5430.87,1.72895
10632,51.9219,5421.3,1.72808
10640,51.9609,5427.4,1.732
10648,52.0,5436.03,1.73405
10656,52.0391,5422.79,1.73366
10664,52.0781,5428.55,1.73631
10672,52.1172,5451.88,1.73585
10680,52.15625,5448.35,1.73674
10688,52.1953,5449.39,1.7382
10696,52.2344,5457.54,1.74102
10704,52.2734,5451.46,1.74212
10712,52.3125,5460.39,1.74342
10720,52.3516,5461.19,1.74491
10728,52.3906,5463.72,1.74684
10736,52.4297,5463.99,1.74673
10744,52.46875,5482.53,1.74835
10752,52.5078,5463.67,1.75062
10760,52.5469,5475.66,1.7507
10768,52.5859,5480.08,1.75153
10776,52.625,5477.35,1.75435
10784,52.6641,5488.03,1.75395
10792,52.7031,5503.12,1.75717
10800,52.7422,5485.02,1.75681
10808,52.78125,5499.63,1.75896
10816,52.8203,5511.29,1.75901
10824,52.8594,5501.99,1.76193
10832,52.8984,5502.16,1.76277
10840,52.9375,5516.53,1.76353
10848,52.9766,5506.05,1.76576
10856,53.0156,5505.3,1.76606
10864,53.0547,5526.53,1.76611
10872,53.09375,5532.1,1.77035
10880,53.1328,5525.73,1.76953
10888,53.1719,5533.4,1.770587
10896,53.2109,5526.93,1.77246
10904,53.25,5534.04,1.7744
10912,53.2891,5549.25,1.77445
10920,53.3281,5538.8,1.77754
10928,53.3672,5548.58,1.77832
10936,53.40625,5546.93,1.77992
10944,53.4453,5547.64,1.78009
10952,53.4844,5556.85,1.78224
10960,53.5234,5555.35,1.78418
10968,53.5625,5556,1.78457
10976,53.6016,5564.68,1.78634
10984,53.6406,5566.59,1.78643
10992,53.6797,5562.21,1.79033
11000,53.71875,5576.08,1.78915
11008,53.7578,5587.32,1.79121
11016,53.7969,5577.49,1.79355
11024,53.8359,5588.84,1.79348
11032,53.875,5590.47,1.79597
11040,53.9141,5590.43,1.79578
11048,53.9531,5599.24,1.7987
11056,53.9922,5603.36,1.80028
11064,54.03125,5587.53,1.79908
11072,54.0703,5612.15,1.80198
11080,54.1094,5619.73,1.80231
11088,54.1484,5603.12,1.80326
11096,54.1875,5620.06,1.80482
11104,54.2266,5616.34,1.80613
11112,54.2656,5624.11,1.80785
11120,54.3047,5625.89,1.809411
11128,54.34375,5630.69,1.81073
11136,54.3828,5629.94,1.81259
11144,54.4219,5633.77,1.81312
11152,54.4609,5631.61,1.81303
11160,54.5,5634.2,1.81612
11168,54.5391,5647.41,1.81805
11176,54.5781,5644.85,1.82048
11184,54.6172,5648.88,1.818831
11192,54.65625,5650.48,1.82027
11200,54.6953,5653.07,1.82324
11208,54.7344,5651.11,1.82195
11216,54.7734,5671.21,1.82623
11224,54.8125,5661.83,1.82779
11232,54.8516,5665.12,1.82782
11240,54.8906,5669.48,1.828748
11248,54.9297,5678.75,1.83042
11256,54.96875,5670.43,1.83157
11264,55.0078,5678.03,1.83184
11272,55.0469,5684.16,1.83404
11280,55.0859,5687.06,1.8361
11288,55.125,5692.42,1.83746
11296,55.1641,5702.55,1.83672
11304,55.2031,5692.07,1.83921
11312,55.2422,5692.82,1.8399
11320,55.28125,5702.88,1.843189
11328,55.3203,5691.84,1.843375
11336,55.3594,5714.21,1.84623
11344,55.3984,5720.3,1.84643
11352,55.4375,5706.87,1.84754
11360,55.4766,5713.21,1.8496
11368,55.5156,5721.43,1.85049
11376,55.5547,5710.58,1.85095
11384,55.59375,5724.55,1.85241
11392,55.6328,5732.37,1.8546
11400,55.6719,5744.6,1.8557
11408,55.7109,5731.74,1.85652
11416,55.75,5737.96,1.85717
11424,55.7891,5742.81,1.8594
11432,55.8281,5745.07,1.85959
11440,55.8672,5746.46,1.85882
11448,55.90625,5745.51,1.86379
11456,55.9453,5749.53,1.86386
11464,55.9844,5764.75,1.865176
11472,56.0234,5751.6,1.86582
11480,56.0625,5763.98,1.86758
11488,56.1016,5770.98,1.86998
11496,56.1406,5759.01,1.87023
11504,56.1797,5776.75,1.87474
11512,56.21875,5783.04,1.87412
11520,56.2578,5776.94,1.87351
11528,56.2969,5779.98,1.87697
11536,56.3359,5790.92,1.8775
11544,56.375,5794.69,1.88061
11552,56.4141,5792.86,1.87943
11560,56.4531,5795.6,1.88073
11568,56.4922,5796.36,1.88371
11576,56.53125,5814.12,1.883111
11584,56.5703,5807.08,1.88446
11592,56.6094,5805.22,1.88693
11600,56.6484,5810.81,1.88669
11608,56.6875,5810.85,1.88953
11616,56.7266,5810.79,1.88932
11624,56.7656,5829.85,1.89246
11632,56.8047,5825.77,1.89278
11640,56.84375,5817.71,1.89368
11648,56.8828,5824.18,1.89413
11656,56.9219,5838.57,1.8977
11664,56.9609,5821.88,1.89731
11672,57.0,5838.09,1.89989
11680,57.0391,5833.83,1.90003
11688,57.0781,5845.85,1.90343
11696,57.1172,5852.79,1.90285
11704,57.15625,5846.55,1.9029
11712,57.1953,5859.16,1.90778
11720,57.2344,5857.77,1.90695
11728,57.2734,5862.18,1.90817
11736,57.3125,5869.03,1.9091
11744,57.3516,5882.95,1.91052
11752,57.3906,5875.41,1.91287
11760,57.4297,5868.98,1.91133
11768,57.46875,5882.98,1.91785
11776,57.5078,5882.18,1.916939
11784,57.5469,5872.9,1.91648
11792,57.5859,5887.26,1.91939
11800,57.625,5885.12,1.91885
11808,57.6641,5891.46,1.92251
11816,57.7031,5899.08,1.92413
11824,57.7422,5890.49,1.92465
11832,57.78125,5896.1,1.92459
11840,57.8203,5908.79,1.9275
11848,57.8594,5909.39,1.9268
11856,57.8984,5906.82,1.92835
11864,57.9375,5914.27,1.93223
11872,57.9766,5914.51,1.93159
11880,58.0156,5919.85,1.93233
11887,58.0498,2051.29,1.95863