File: ASM109_2021_data/MTS/90/MTS_90_5.csv
,Time [s],Load [N],Displacement [mm]
0,0.0078125,-413.972,0.000847578
8,0.046875,-421.131,0.000522137
16,0.0859375,-404.135,0.00130534
24,0.125,-380.071,0.0030899
32,0.1640625,-395.165,0.005582571
40,0.203125,-386.771,0.00552893
48,0.2421875,-374.541,0.00864387
56,0.28125,-363.137,0.00879407
64,0.3203125,-363.194,0.00969887
72,0.359375,-355.259,0.0126386
80,0.3984375,-356.778,0.0131428
88,0.4375,-341.303,0.0163364
96,0.4765625,-349.269,0.0144768
104,0.515625,-336.179,0.0161755
112,0.5546875,-324.971,0.0183249
120,0.59375,-335.955,0.0193906
128,0.6328125,-327.405,0.0225484
136,0.671875,-303.979,0.0220478
144,0.7109375,-311.622,0.023675
152,0.75,-297.614,0.0252879
160,0.7890625,-300.331,0.026257
168,0.828125,-285.279,0.0279737
176,0.8671875,-282.754,0.0281739
184,0.90625,-277.677,0.02900362
192,0.9453125,-266.338,0.0305164
200,0.984375,-253.138,0.0332916
208,1.02344,-254.517,0.0331521
216,1.0625,-245.523,0.0342679
224,1.10156,-241.388,0.0380123
232,1.140625,-235.18,0.03914237
240,1.17969,-230.449,0.0383663
248,1.21875,-218.264,0.0390065
256,1.25781,-222.673,0.0422788
264,1.296875,-215.158,0.0432408
272,1.33594,-207.411,0.0444138
280,1.375,-203.252,0.0460732
288,1.41406,-199.152,0.047586
296,1.453125,-205.299,0.0488555
304,1.49219,-192.463,0.0478578
312,1.53125,-180.237,0.0506437
320,1.57031,-187.079,0.0521207
328,1.609375,-184.523,0.0530183
336,1.64844,-166.269,0.0550604
344,1.6875,-160.31,0.05497098
352,1.72656,-147.825,0.0564265
360,1.765625,-143.227,0.0579357
368,1.80469,-140.116,0.0597811
376,1.84375,-127.082,0.0609469
384,1.88281,-130.373,0.0620484
392,1.921875,-123.551,0.0646985
400,1.96094,-114.352,0.06636858
408,2.0,-125.198,0.0655138
416,2.03906,-104.56,0.0673163
424,2.078125,-89.3838,0.0704777
432,2.11719,-92.2165,0.0692654
440,2.15625,-89.2628,0.0709319
448,2.19531,-85.2444,0.0710392
456,2.234375,-73.8549,0.0748336
464,2.27344,-73.1436,0.0765181
472,2.3125,-77.4205,0.0775445
480,2.35156,-65.8523,0.0771153
488,2.390625,-54.2032,0.0787604
496,2.42969,-52.5984,0.08111
504,2.46875,-36.5764,0.0811815
512,2.50781,-41.6471,0.0829232
520,2.546875,-32.1554,0.0860739
528,2.58594,-35.08,0.087297
536,2.625,-12.2696,0.0865173
544,2.66406,-20.5157,0.0904083
552,2.703125,-9.22844,0.0914812
560,2.74219,-8.76149,0.0897753
568,2.78125,-3.08552,0.0926757
576,2.82031,12.931,0.0928009
584,2.859375,7.06923,0.0947106
592,2.89844,26.9516,0.0957978
600,2.9375,24.8397,0.09616971
608,2.97656,29.2949,0.099721
616,3.015625,38.1755,0.0988483
624,3.05469,44.9149,0.103995
632,3.09375,53.3431,0.103068
640,3.13281,49.1985,0.103755
648,3.171875,57.3232,0.104806
656,3.21094,61.8155,0.104953
664,3.25,77.2467,0.108615
672,3.28906,65.2328,0.108522
680,3.328125,77.2022,0.110725
688,3.36719,96.0106,0.112149
696,3.40625,85.0278,0.111759
704,3.44531,100.46,0.114123
712,3.484375,108.245,0.115532
720,3.52344,116.229,0.115871
728,3.5625,112.181,0.11816
736,3.60156,103.366,0.119516
744,3.640625,136.053,0.119812
752,3.67969,132.631,0.123121
760,3.71875,134.713,0.123678
768,3.75781,146.187,0.125209
776,3.796875,150.92,0.12404
784,3.83594,157.903,0.12718
792,3.875,155.454,0.127151
800,3.91406,161.109,0.128392
808,3.953125,178.604,0.131629
816,3.99219,170.471,0.133009
824,4.03125,181.414,0.133735
832,4.07031,205.41,0.135351
840,4.109375,195.279,0.137898
848,4.14844,208.916,0.138706
856,4.1875,202.911,0.139024
864,4.22656,218.263,0.140998
872,4.265625,225.679,0.1412487
880,4.30469,219.024,0.142111
888,4.34375,236.823,0.144918
896,4.38281,229.984,0.145125
904,4.421875,249.929,0.14677
912,4.46094,247.74,0.147779
920,4.5,246.445,0.148784
928,4.53906,267.787,0.151423
936,4.578125,260.847,0.151677
944,4.61719,264.524,0.152181
952,4.65625,272.373,0.156398
960,4.69531,274.37,0.156509
968,4.734375,272.13,0.157585
976,4.77344,293.491,0.159509
984,4.8125,293.006,0.160196
992,4.85156,299.794,0.16001
1000,4.890625,299.159,0.163064
1008,4.92969,309.652,0.164205
1016,4.96875,323.711,0.164051
1024,5.00781,303.99,0.1649344
1032,5.046875,332.501,0.167456
1040,5.08594,335.259,0.169086
1048,5.125,338.304,0.170599
1056,5.16406,339.228,0.173138
1064,5.203125,349.222,0.172209
1072,5.24219,357.404,0.174859
1080,5.28125,353.887,0.174726
1088,5.32031,377.435,0.176282
1096,5.359375,377.686,0.179125
1104,5.39844,375.692,0.179061
1112,5.4375,377.682,0.180963
1120,5.47656,384.51,0.182405
1128,5.515625,390.546,0.183209
1136,5.55469,392.625,0.185384
1144,5.59375,398.504,0.186675
1152,5.63281,409.705,0.188395
1160,5.671875,425.251,0.189003
1168,5.71094,406.816,0.188627
1176,5.75,433.622,0.190176
1184,5.78906,428.489,0.194113
1192,5.828125,429.777,0.1934588
1200,5.86719,438.55,0.194417
1208,5.90625,452.282,0.19652
1216,5.94531,462.644,0.198623
1224,5.984375,457.568,0.199063
1232,6.02344,447.875,0.199224
1240,6.0625,475.352,0.201727
1248,6.10156,478.493,0.202307
1256,6.140625,483.667,0.204488
1264,6.17969,492.145,0.205883
1272,6.21875,489.454,0.206391
1280,6.25781,491,0.208046
1288,6.296875,505.163,0.21006
1296,6.33594,511.625,0.211612
1304,6.375,516.331,0.21193
1312,6.41406,515.678,0.212181
1320,6.453125,523.949,0.215292
1328,6.49219,528.844,0.216669
1336,6.53125,542.069,0.217566
1344,6.57031,530.304,0.217237
1352,6.609375,542.896,0.2197051
1360,6.64844,552.823,0.221314
1368,6.6875,545.318,0.221457
1376,6.72656,556.757,0.225159
1384,6.765625,572.724,0.2251339
1392,6.80469,568.314,0.225677
1400,6.84375,585.467,0.227916
1408,6.88281,580.098,0.2291429
1416,6.921875,584.113,0.231285
1424,6.96094,599.119,0.232955
1432,7.0,595.616,0.232555
1440,7.03906,609.904,0.2342248
1448,7.078125,616.733,0.236807
1456,7.11719,610.346,0.236177
1464,7.15625,619.796,0.237629
1472,7.19531,629.158,0.238409
1480,7.234375,629.81,0.242354
1488,7.27344,636.914,0.239915
1496,7.3125,647.345,0.2442348
1504,7.35156,646.153,0.244925
1512,7.390625,644.028,0.246584
1520,7.42969,655.229,0.24711
1528,7.46875,670.834,0.249285
1536,7.50781,654.367,0.249388
1544,7.546875,667.509,0.250325
1552,7.58594,679.544,0.25231
1560,7.625,689.191,0.25456
1568,7.66406,689.62,0.25496
1576,7.703125,689.186,0.253955
1584,7.74219,700.13,0.257846
1592,7.78125,709.807,0.259252
1600,7.82031,713.274,0.259531
1608,7.859375,714.279,0.261823
1616,7.89844,726.566,0.263071
1624,7.9375,735.015,0.26492
1632,7.97656,735.716,0.266107
1640,8.015625,736.069,0.266812
1648,8.05469,745.267,0.267248
1656,8.09375,733.414,0.269172
1664,8.13281,753.864,0.270313
1672,8.171875,764.066,0.272434
1680,8.21094,764.515,0.2715
1688,8.25,766.872,0.273371
1696,8.28906,769.197,0.275856
1704,8.328125,781.551,0.27768
1712,8.36719,781.693,0.2788353
1720,8.40625,779,0.279998
1728,8.44531,791.017,0.280874
1736,8.484375,808.447,0.283856
1744,8.52344,797.303,0.282058
1752,8.5625,810.848,0.284361
1760,8.60156,810.066,0.2870357
1768,8.640625,825.563,0.287833
1776,8.67969,829.312,0.288252
1784,8.71875,831.453,0.288913
1792,8.75781,845.344,0.292357
1800,8.796875,845.272,0.293201
1808,8.83594,841.745,0.2923
1816,8.875,849.44,0.296574
1824,8.91406,853.346,0.2972424
1832,8.953125,861.539,0.298637
1840,8.99219,862.317,0.298097
1848,9.03125,873.212,0.301759
1856,9.07031,874.265,0.302503
1864,9.109375,873.907,0.302778
1872,9.14844,887.144,0.305142
1880,9.1875,890.475,0.3066659
1888,9.22656,901.745,0.307331
1896,9.265625,901.043,0.307885
1904,9.30469,902.994,0.308522
1912,9.34375,921.416,0.311805
1920,9.38281,914.603,0.311029
1928,9.421875,917.14,0.314158
1936,9.46094,936.867,0.314698
1944,9.5,930.956,0.316586
1952,9.53906,938.054,0.316136
1960,9.578125,955.114,0.319852
1968,9.61719,955.947,0.321332
1976,9.65625,955.913,0.321611
1984,9.69531,950.945,0.322748
1992,9.734375,976.603,0.324662
2000,9.77344,971.098,0.326253
2008,9.8125,970.824,0.325441
2016,9.85156,983.415,0.328317
2024,9.890625,985.294,0.330316
2032,9.92969,990.12,0.330552
2040,9.96875,993.821,0.333602
2048,10.0078,1003.87,0.33269
2056,10.0469,1010.71,0.334207
2064,10.0859,997.732,0.33494
2072,10.125,1010.28,0.336449
2080,10.1641,1023.83,0.339603
2088,10.2031,1035.68,0.340201
2096,10.2422,1030.43,0.341864
2104,10.28125,1040.88,0.34176
2112,10.3203,1042.2,0.343598
2120,10.3594,1051.51,0.34519
2128,10.3984,1042.23,0.345815
2136,10.4375,1072.32,0.347714
2144,10.4766,1055.18,0.34873
2152,10.5156,1064.72,0.350111
2160,10.5547,1073.2,0.351416
2168,10.59375,1076.04,0.352424
2176,10.6328,1079.78,0.3535831
2184,10.6719,1084.92,0.355697
2192,10.7109,1081.42,0.357063
2200,10.75,1106.88,0.358257
2208,10.7891,1096.95,0.35712
2216,10.8281,1107.04,0.360907
2224,10.8672,1112.54,0.36306
2232,10.90625,1115.02,0.362427
2240,10.9453,1125.27,0.363264
2248,10.9844,1122.12,0.366032
2256,11.0234,1132.9,0.367534
2264,11.0625,1143.38,0.3685
2272,11.1016,1137.46,0.369387
2280,11.1406,1145.26,0.370567
2288,11.1797,1156.98,0.374908
2296,11.21875,1153.63,0.37366
2304,11.2578,1166.29,0.3743434
2312,11.2969,1168.25,0.375634
2320,11.3359,1174.38,0.376446
2328,11.375,1178.03,0.378546
2336,11.4141,1177.74,0.379082
2344,11.4531,1193.46,0.382133
2352,11.4922,1189.36,0.382948
2360,11.53125,1203.97,0.383939
2368,11.5703,1208.52,0.385784
2376,11.6094,1217.29,0.386685
2384,11.6484,1210.74,0.388173
2392,11.6875,1212.15,0.38764
2400,11.7266,1228.3,0.391277
2408,11.7656,1234.02,0.391474
2416,11.8047,1219.29,0.391159
2424,11.84375,1240.81,0.395004
2432,11.8828,1242.77,0.397146
2440,11.9219,1251.36,0.396391
2448,11.9609,1254.12,0.397582
2456,12.0,1266.33,0.4008472
2464,12.0391,1267.8,0.402696
2472,12.0781,1262.76,0.402228
2480,12.1172,1278.1,0.401798
2488,12.15625,1285.64,0.406623
2496,12.1953,1285.97,0.405514
2504,12.2344,1290.71,0.408583
2512,12.2734,1297.74,0.409112
2520,12.3125,1303.11,0.409648
2528,12.3516,1304.57,0.411597
2536,12.3906,1310.31,0.412284
2544,12.4297,1313.02,0.4147768
2552,12.46875,1314.34,0.415539
2560,12.5078,1313.06,0.415703
2568,12.5469,1328.15,0.417691
2576,12.5859,1326.93,0.4174161
2584,12.625,1342.31,0.419437
2592,12.6641,1343.97,0.420839
2600,12.7031,1348.26,0.42228
2608,12.7422,1365.75,0.425645
2616,12.78125,1355.78,0.42449
2624,12.8203,1364.59,0.424247
2632,12.8594,1376.04,0.429307
2640,12.8984,1373.52,0.429375
2648,12.9375,1381.78,0.43072
2656,12.9766,1382.79,0.432197
2664,13.0156,1393.23,0.433248
2672,13.0547,1392.58,0.433906
2680,13.09375,1390.44,0.434253
2688,13.1328,1410.49,0.43769
2696,13.1719,1416.49,0.439514
2704,13.2109,1406.46,0.438695
2712,13.25,1423.34,0.440809
2720,13.2891,1418.84,0.4430902
2728,13.3281,1437.41,0.445064
2736,13.3672,1430.22,0.44431
2744,13.40625,1436.85,0.4466486
2752,13.4453,1433.67,0.449413
2760,13.4844,1440.33,0.448258
2768,13.5234,1451.82,0.449263
2776,13.5625,1465.83,0.452592
2784,13.6016,1465.95,0.453115
2792,13.6406,1465.02,0.455278
2800,13.6797,1478.84,0.454434
2808,13.71875,1488.46,0.456809
2816,13.7578,1484.14,0.459158
2824,13.7969,1476.96,0.459248
2832,13.8359,1502.34,0.461047
2840,13.875,1498.38,0.462348
2848,13.9141,1499.69,0.463346
2856,13.9531,1500.81,0.464494
2864,13.9922,1508.5,0.465245
2872,14.03125,1527.12,0.467534
2880,14.0703,1519.41,0.469469
2888,14.1094,1529.93,0.469841
2896,14.1484,1531.28,0.471872
2904,14.1875,1530.85,0.472884
2912,14.2266,1530.97,0.473324
2920,14.2656,1540.71,0.476625
2928,14.3047,1561.73,0.47577
2936,14.34375,1553.61,0.477101
2944,14.3828,1555.49,0.477165
2952,14.4219,1559.27,0.480781
2960,14.4609,1566.64,0.481431
2968,14.5,1575.21,0.482415
2976,14.5391,1576.98,0.484922
2984,14.5781,1591.19,0.486213
2992,14.6172,1583.34,0.486438
3000,14.65625,1592.3,0.487729
3008,14.6953,1596.34,0.488963
3016,14.7344,1609.34,0.490597
3024,14.7734,1595.1,0.491627
3032,14.8125,1613.86,0.493126
3040,14.8516,1622.53,0.494674
3048,14.8906,1625.78,0.495651
3056,14.9297,1623.51,0.494592
3064,14.96875,1631.9,0.499488
3072,15.0078,1637.52,0.500218
3080,15.0469,1640.11,0.501648
3088,15.0859,1644.55,0.501738
3096,15.125,1653.28,0.503615
3104,15.1641,1656.86,0.504613
3112,15.2031,1651.35,0.505604
3120,15.2422,1670.95,0.508171
3128,15.28125,1671.14,0.509777
3136,15.3203,1666.03,0.510192
3144,15.3594,1686.38,0.511218
3152,15.3984,1675.21,0.512559
3160,15.4375,1693,0.515535
3168,15.4766,1699.64,0.515063
3176,15.5156,1693.78,0.5160284
3184,15.5547,1708.51,0.519036
3192,15.59375,1699.46,0.520291
3200,15.6328,1715.13,0.520595
3208,15.6719,1726.07,0.523002
3216,15.7109,1720.62,0.523835
3224,15.75,1733.9,0.524279
3232,15.7891,1725.47,0.525931
3240,15.8281,1743.58,0.52753
3248,15.8672,1753.92,0.529461
3256,15.90625,1735.88,0.530941
3264,15.9453,1743.06,0.529829
3272,15.9844,1751.44,0.533642
3280,16.0234,1763.79,0.534614
3288,16.0625,1765.05,0.533777
3296,16.1016,1773.49,0.535744
3304,16.1406,1779.85,0.53794
3312,16.1797,1782.5,0.538001
3320,16.21875,1786.99,0.540122
3328,16.2578,1785.81,0.541205
3336,16.2969,1799.01,0.544024
3344,16.3359,1794.5,0.543902
3352,16.375,1803.66,0.546201
3360,16.4141,1824.32,0.546155
3368,16.4531,1799.29,0.548422
3376,16.4922,1811.06,0.547088
3384,16.53125,1839.4,0.551273
3392,16.5703,1823.22,0.55241
3400,16.6094,1837.93,0.552499
3408,16.6484,1836.01,0.555099
3416,16.6875,1851.22,0.55619
3424,16.7266,1851.09,0.5564189
3432,16.7656,1848.92,0.558246
3440,16.8047,1857.75,0.559523
3448,16.84375,1863.89,0.561301
3456,16.8828,1860.63,0.56193
3464,16.9219,1870.79,0.562513
3472,16.9609,1876.43,0.565563
3480,17.0,1879.6,0.566204
3488,17.0391,1885.92,0.56777
3496,17.0781,1896.26,0.569315
3504,17.1172,1902.05,0.570645
3512,17.15625,1905.35,0.5726409
3520,17.1953,1892.43,0.572981
3528,17.2344,1917.29,0.574851
3536,17.2734,1921.31,0.575631
3544,17.3125,1909.72,0.576063
3552,17.3516,1909.44,0.57724
3560,17.3906,1927.47,0.579361
3568,17.4297,1938.28,0.581735
3576,17.46875,1928.56,0.581006
3584,17.5078,1938.42,0.583792
3592,17.5469,1948.71,0.583699
3600,17.5859,1945.62,0.585859
3608,17.625,1951.23,0.58524
3616,17.6641,1970.17,0.588773
3624,17.7031,1967.19,0.589653
3632,17.7422,1961.79,0.591087
3640,17.78125,1974.15,0.593469
3648,17.8203,1988.27,0.593945
3656,17.8594,1984.71,0.594642
3664,17.8984,1976.99,0.595225
3672,17.9375,1997.99,0.597714
3680,17.9766,2012.33,0.5988729
3688,18.0156,1997.7,0.599427
3696,18.0547,2018.96,0.601569
3704,18.09375,2019.72,0.6023562
3712,18.1328,2023.95,0.604298
3720,18.1719,2019.95,0.605142
3728,18.2109,2038.95,0.605232
3736,18.25,2040.54,0.609337
3744,18.2891,2038.99,0.609845
3752,18.3281,2037.7,0.609012
3760,18.3672,2051.8,0.612645
3768,18.40625,2049.02,0.613636
3776,18.4453,2051.55,0.614423
3784,18.4844,2056.77,0.61478
3792,18.5234,2064.97,0.6165719
3800,18.5625,2068.08,0.6190145
3808,18.6016,2078.9,0.618471
3816,18.6406,2080.57,0.619551
3824,18.6797,2087.93,0.62371
3832,18.71875,2088.17,0.624028
3840,18.7578,2095.03,0.623864
3848,18.7969,2092.65,0.6265676
3856,18.8359,2111,0.626035
3864,18.875,2109.48,0.628206
3872,18.9141,2111.18,0.630054
3880,18.9531,2119.78,0.63087
3888,18.9922,2114.88,0.634532
3896,19.03125,2120.78,0.633148
3904,19.0703,2136.26,0.636756
3912,19.1094,2135.52,0.636266
3920,19.1484,2146.23,0.638713
3928,19.1875,2145.73,0.638773
3936,19.2266,2154.02,0.641849
3944,19.2656,2160.22,0.643802
3952,19.3047,2151.96,0.641692
3960,19.34375,2172.6,0.64501
3968,19.3828,2163,0.645314
3976,19.4219,2178.07,0.646577
3984,19.4609,2176.31,0.648669
3992,19.5,2189.58,0.649159
4000,19.5391,2192.54,0.649767
4008,19.5781,2182.84,0.652252
4016,19.6172,2195.15,0.652345
4024,19.65625,2207.85,0.655407
4032,19.6953,2211.61,0.656233
4040,19.7344,2207.87,0.656866
4048,19.7734,2224.78,0.660378
4056,19.8125,2226.33,0.659877
4064,19.8516,2217.99,0.663364
4072,19.8906,2227.35,0.66262
4080,19.9297,2236.07,0.664669
4088,19.96875,2236.89,0.665678
4096,20.0078,2233.13,0.66522
4104,20.0469,2253.28,0.667391
4112,20.0859,2258.18,0.669612
4120,20.125,2261.83,0.670527
4128,20.1641,2265.89,0.671203
4136,20.2031,2263.89,0.6727159
4144,20.2422,2279.14,0.674568
4152,20.28125,2270.29,0.6743753
4160,20.3203,2275.77,0.677133
4168,20.3594,2286.55,0.6781733
4176,20.3984,2280.06,0.680219
4184,20.4375,2291.35,0.68097
4192,20.4766,2289.86,0.681953
4200,20.5156,2305.97,0.682755
4208,20.5547,2315.02,0.685
4216,20.59375,2298.37,0.684621
4224,20.6328,2332.05,0.687472
4232,20.6719,2318,0.689664
4240,20.7109,2322.11,0.688816
4248,20.75,2330.68,0.6910193
4256,20.7891,2330.07,0.692832
4264,20.8281,2335.69,0.6936264
4272,20.8672,2346.62,0.694288
4280,20.90625,2347.65,0.696173
4288,20.9453,2353.52,0.699091
4296,20.9844,2356.98,0.698365
4304,21.0234,2352.87,0.698977
4312,21.0625,2370.1,0.7020092
4320,21.1016,2364.97,0.702381
4328,21.1406,2367.39,0.704262
4336,21.1797,2377.67,0.703483
4344,21.21875,2381.48,0.707173
4352,21.2578,2387.81,0.707688
4360,21.2969,2400.46,0.707463
4368,21.3359,2397.15,0.713246
4376,21.375,2410.97,0.712363
4384,21.4141,2402.13,0.713317
4392,21.4531,2412.31,0.714655
4400,21.4922,2421.58,0.715839
4408,21.53125,2427.57,0.71664
4416,21.5703,2415.26,0.718617
4424,21.6094,2426.63,0.719873
4432,21.6484,2438.08,0.721089
4440,21.6875,2441.03,0.722433
4448,21.7266,2443.56,0.722727
4456,21.7656,2440.81,0.725548
4464,21.8047,2447.76,0.726471
4472,21.84375,2455.93,0.72759
4480,21.8828,2454.66,0.728413
4488,21.9219,2464.26,0.731735
4496,21.9609,2474.03,0.732054
4504,22.0,2459.76,0.731646
4512,22.0391,2484.76,0.734303
4520,22.0781,2485.96,0.734975
4528,22.1172,2479.6,0.735451
4536,22.15625,2498.91,0.7373
4544,22.1953,2495.61,0.73823
4552,22.2344,2510.48,0.742267
4560,22.2734,2503.31,0.742815
4568,22.3125,2498.44,0.742511
4576,22.3516,2519.62,0.7452178
4584,22.3906,2507.11,0.745804
4592,22.4297,2518.71,0.746065
4600,22.46875,2533.91,0.747385
4608,22.5078,2539.45,0.749663
4616,22.5469,2532.58,0.751201
4624,22.5859,2538.44,0.7527566
4632,22.625,2550.87,0.755914
4640,22.6641,2555.79,0.755249
4648,22.7031,2555.09,0.754809
4656,22.7422,2564.61,0.7568121
4664,22.78125,2561.59,0.758808
4672,22.8203,2572.13,0.759566
4680,22.8594,2562.89,0.760628
4688,22.8984,2577.22,0.762298
4696,22.9375,2584.14,0.763979
4704,22.9766,2588.94,0.765442
4712,23.0156,2594.3,0.765381
4720,23.0547,2600.36,0.768192
4728,23.09375,2604.71,0.7681489
4736,23.1328,2603.06,0.770209
4744,23.1719,2609.79,0.771421
4752,23.2109,2608.07,0.773588
4760,23.25,2610.98,0.774815
4768,23.2891,2613.05,0.775298
4776,23.3281,2623.39,0.777347
4784,23.3672,2636.3,0.778742
4792,23.40625,2633.9,0.778252
4800,23.4453,2642.17,0.780705
4808,23.4844,2645.7,0.781982
4816,23.5234,2639.44,0.784646
4824,23.5625,2650.38,0.784689
4832,23.6016,2658.68,0.786316
4840,23.6406,2667.09,0.789042
4848,23.6797,2662.32,0.788434
4856,23.71875,2665.72,0.790468
4864,23.7578,2673.1,0.792961
4872,23.7969,2678.88,0.79354
4880,23.8359,2680.46,0.794967
4888,23.875,2690.65,0.798415
4896,23.9141,2691.25,0.795851
4904,23.9531,2703.27,0.797703
4912,23.9922,2701.41,0.799223
4920,24.03125,2710.59,0.802288
4928,24.0703,2719.31,0.80271
4936,24.1094,2710.47,0.80192
4944,24.1484,2720.18,0.8035934
4952,24.1875,2728.01,0.807277
4960,24.2266,2738.62,0.806926
4968,24.2656,2732.18,0.808243
4976,24.3047,2728.08,0.808389
4984,24.34375,2740.69,0.812749
4992,24.3828,2738.54,0.812663
5000,24.4219,2749.07,0.811987
5008,24.4609,2758.12,0.815824
5016,24.5,2765.49,0.815721
5024,24.5391,2760.57,0.816654
5032,24.5781,2765.12,0.818553
5040,24.6172,2773.85,0.819404
5048,24.65625,2781.04,0.821961
5056,24.6953,2775.57,0.8218503
5064,24.7344,2787.38,0.82317
5072,24.7734,2797.99,0.826575
5080,24.8125,2795.2,0.826274
5088,24.8516,2792.46,0.827841
5096,24.8906,2807.75,0.828874
5104,24.9297,2809.86,0.830423
5112,24.96875,2810.65,0.831835
5120,25.0078,2818.83,0.834035
5128,25.0469,2822.98,0.83603
5136,25.0859,2820.29,0.836735
5144,25.125,2828.23,0.835487
5152,25.1641,2827.38,0.839306
5160,25.2031,2838.22,0.83921
5168,25.2422,2842.72,0.840003
5176,25.28125,2838.51,0.843251
5184,25.3203,2854.23,0.844188
5192,25.3594,2862.95,0.845318
5200,25.3984,2854.35,0.84447
5208,25.4375,2865.07,0.84731
5216,25.4766,2861.83,0.848165
5224,25.5156,2869.3,0.849863
5232,25.5547,2877.59,0.850836
5240,25.59375,2881.51,0.853078
5248,25.6328,2894.3,0.854659
5256,25.6719,2885.11,0.854877
5264,25.7109,2893.1,0.855067
5272,25.75,2906.72,0.857517
5280,25.7891,2896.04,0.85919
5288,25.8281,2887.49,0.858214
5296,25.8672,2911.08,0.8638072
5304,25.90625,2911.72,0.864455
5312,25.9453,2918.46,0.864301
5320,25.9844,2920.07,0.864455
5328,26.0234,2926.85,0.867147
5336,26.0625,2930.03,0.868986
5344,26.1016,2942.23,0.869468
5352,26.1406,2942.2,0.871035
5360,26.1797,2946.03,0.872426
5368,26.21875,2948.82,0.872244
5376,26.2578,2947.42,0.873982
5384,26.2969,2955.93,0.876364
5392,26.3359,2962.03,0.879089
5400,26.375,2962,0.878774
5408,26.4141,2976.29,0.879979
5416,26.4531,2965.07,0.8821249
5424,26.4922,2982.62,0.884074
5432,26.53125,2989.23,0.883033
5440,26.5703,2989.78,0.88514
5448,26.6094,2976.67,0.886141
5456,26.6484,2995.85,0.887121
5464,26.6875,3003.69,0.887861
5472,26.7266,3003.52,0.889921
5480,26.7656,3016.62,0.890787
5488,26.8047,3001.69,0.892328
5496,26.84375,3006.98,0.894098
5504,26.8828,3022.06,0.895447
5512,26.9219,3021.53,0.896416
5520,26.9609,3022.75,0.897027
5528,27.0,3038.29,0.9002459
5536,27.0391,3044.88,0.901948
5544,27.0781,3041.03,0.902156
5552,27.1172,3040.74,0.901544
5560,27.15625,3052.79,0.904387
5568,27.1953,3039.92,0.90625
5576,27.2344,3060.09,0.905889
5584,27.2734,3074.51,0.908432
5592,27.3125,3055.52,0.907506
5600,27.3516,3069.43,0.910635
5608,27.3906,3090.33,0.911618
5616,27.4297,3073.02,0.913821
5624,27.46875,3087.04,0.915349
5632,27.5078,3085.59,0.915653
5640,27.5469,3100.39,0.917913
5648,27.5859,3096.58,0.920599
5656,27.625,3105.08,0.919272
5664,27.6641,3097.52,0.921925
5672,27.7031,3105.17,0.922472
5680,27.7422,3130.74,0.924786
5688,27.78125,3103.37,0.926113
5696,27.8203,3124.85,0.926453
5704,27.8594,3136.58,0.928481
5712,27.8984,3126.91,0.930201
5720,27.9375,3144.87,0.930995
5728,27.9766,3143.47,0.930741
5736,28.0156,3133.31,0.932229
5744,28.0547,3161.64,0.935351
5752,28.09375,3146.34,0.935748
5760,28.1328,3152.84,0.937951
5768,28.1719,3164.14,0.939267
5776,28.2109,3168.47,0.938823
5784,28.25,3167.81,0.940096
5792,28.2891,3168.18,0.942965
5800,28.3281,3185.08,0.945607
5808,28.3672,3184.08,0.945386
5816,28.40625,3188.22,0.946462
5824,28.4453,3196.25,0.948737
5832,28.4844,3189.43,0.948998
5840,28.5234,3192.38,0.948465
5848,28.5625,3209.03,0.95207
5856,28.6016,3205.43,0.952699
5864,28.6406,3210.27,0.95492
5872,28.6797,3222.66,0.953776
5880,28.71875,3224.33,0.956615
5888,28.7578,3217.22,0.9577167
5896,28.7969,3219.59,0.958829
5904,28.8359,3226.27,0.961132
5912,28.875,3234.09,0.96307
5920,28.9141,3241.75,0.963267
5928,28.9531,3242.54,0.964715
5936,28.9922,3246.13,0.965381
5944,29.03125,3256.51,0.967838
5952,29.0703,3256.34,0.968513
5960,29.1094,3248.37,0.967791
5968,29.1484,3268.72,0.972404
5976,29.1875,3262.06,0.96994
5984,29.2266,3266.55,0.971711
5992,29.2656,3275.75,0.974275
6000,29.3047,3283.91,0.975981
6008,29.34375,3282.8,0.976503
6016,29.3828,3271.75,0.978123
6024,29.4219,3286.81,0.981224
6032,29.4609,3294.52,0.98353
6040,29.5,3288.34,0.981274
6048,29.5391,3312.16,0.985562
6056,29.5781,3324.85,0.985844
6064,29.6172,3300.69,0.986552
6072,29.65625,3313.88,0.988709
6080,29.6953,3315.41,0.989749
6088,29.7344,3321.64,0.99133
6096,29.7734,3337.37,0.99314
6104,29.8125,3330.63,0.990955
6112,29.8516,3338.86,0.995843
6120,29.8906,3350.28,0.995021
6128,29.9297,3342.84,0.996244
6136,29.96875,3349.1,0.996594
6144,30.0078,3351.39,0.999241
6152,30.0469,3355.02,1.00192
6160,30.0859,3357.68,1.00148
6168,30.125,3377.14,1.0029
6176,30.1641,3374.27,1.00595
6184,30.2031,3371.07,1.00639
6192,30.2422,3380.02,1.0077
6200,30.28125,3380.24,1.01009
6208,30.3203,3395.12,1.01127
6216,30.3594,3391.92,1.0119
6224,30.3984,3394.85,1.01264
6232,30.4375,3416.52,1.0147
6240,30.4766,3407.3,1.01625
6248,30.5156,3406.18,1.01595
6256,30.5547,3406.11,1.01803
6264,30.59375,3419.46,1.01928
6272,30.6328,3426.53,1.01956
6280,30.6719,3418.91,1.02343
6288,30.7109,3434.6,1.02242
6296,30.75,3450.14,1.02481
6304,30.7891,3436.76,1.0239
6312,30.8281,3440.85,1.02789
6320,30.8672,3448.61,1.02898
6328,30.90625,3448.47,1.02936
6336,30.9453,3450.33,1.02989
6344,30.9844,3458.44,1.03203
6352,31.0234,3455.65,1.03486
6360,31.0625,3466.95,1.03438
6368,31.1016,3474.9,1.03562
6376,31.1406,3475.57,1.03901
6384,31.1797,3475.2,1.03962
6392,31.21875,3476.15,1.03843
6400,31.2578,3478.72,1.04221
6408,31.2969,3496.33,1.04241
6416,31.3359,3498.52,1.04368
6424,31.375,3494.63,1.04616
6432,31.4141,3502.56,1.046809
6440,31.4531,3507.71,1.048193
6448,31.4922,3501.07,1.04708
6456,31.53125,3511.69,1.05054
6464,31.5703,3537.81,1.05172
6472,31.6094,3518.52,1.05289
6480,31.6484,3522.25,1.05477
6488,31.6875,3530.77,1.05653
6496,31.7266,3528.54,1.05767
6504,31.7656,3540.41,1.05684
6512,31.8047,3541.23,1.05778
6520,31.84375,3545.79,1.06056
6528,31.8828,3549.83,1.06141
6536,31.9219,3561.91,1.062727
6544,31.9609,3561.46,1.06479
6552,32.0,3557.85,1.0644
6560,32.0391,3565.67,1.06608
6568,32.0781,3573.13,1.06859
6576,32.1172,3586.97,1.06958
6584,32.15625,3585.84,1.07266
6592,32.1953,3573.51,1.07166
6600,32.2344,3584.31,1.07476
6608,32.2734,3600.55,1.07493
6616,32.3125,3602.11,1.07569
6624,32.3516,3595.31,1.07782
6632,32.3906,3608.75,1.0797
6640,32.4297,3620.34,1.08132
6648,32.46875,3608.5,1.08092
6656,32.5078,3615.42,1.08187
6664,32.5469,3616.3,1.0858
6672,32.5859,3623.19,1.085093
6680,32.625,3630.29,1.08615
6688,32.6641,3639.31,1.08733
6696,32.7031,3636.29,1.08897
6704,32.7422,3650.67,1.09099
6712,32.78125,3638.86,1.0909
6720,32.8203,3642.11,1.09181
6728,32.8594,3652.45,1.09391
6736,32.8984,3661.44,1.09584
6744,32.9375,3664.2,1.09724
6752,32.9766,3667.91,1.09918
6760,33.0156,3676.42,1.10069
6768,33.0547,3670.32,1.10162
6776,33.09375,3670.75,1.10262
6784,33.1328,3696.98,1.10409
6792,33.1719,3679.2,1.10389
6800,33.2109,3691.51,1.10495
6808,33.25,3704.33,1.10876
6816,33.2891,3695.42,1.1092
6824,33.3281,3700.24,1.109122
6832,33.3672,3714.38,1.11331
6840,33.40625,3712.59,1.11312
6848,33.4453,3714.4,1.11516
6856,33.4844,3727.07,1.11479
6864,33.5234,3719.1,1.11568
6872,33.5625,3732.59,1.11895
6880,33.6016,3731.19,1.11826
6888,33.6406,3741.26,1.12103
6896,33.6797,3737.49,1.12237
6904,33.71875,3748.34,1.1252
6912,33.7578,3740.39,1.12476
6920,33.7969,3752.02,1.12597
6928,33.8359,3761.16,1.1277
6936,33.875,3755.16,1.12932
6944,33.9141,3758.33,1.12971
6952,33.9531,3778.42,1.13327
6960,33.9922,3765.69,1.131506
6968,34.03125,3776.77,1.13365
6976,34.0703,3778.33,1.13535
6984,34.1094,3791.67,1.13626
6992,34.1484,3792.84,1.14
7000,34.1875,3783.33,1.13875
7008,34.2266,3796.74,1.14164
7016,34.2656,3805.09,1.14346
7024,34.3047,3805.09,1.14364
7032,34.34375,3813.68,1.143
7040,34.3828,3805.3,1.14612
7048,34.4219,3810.98,1.14864
7056,34.4609,3815.51,1.1478
7064,34.5,3821.53,1.150403
7072,34.5391,3826.36,1.15137
7080,34.5781,3830.52,1.15288
7088,34.6172,3832.25,1.152674
7096,34.65625,3844.53,1.15517
7104,34.6953,3837.66,1.15628
7112,34.7344,3835.05,1.15726
7120,34.7734,3846.99,1.15922
7128,34.8125,3851.87,1.15919
7136,34.8516,3851.14,1.16136
7144,34.8906,3854.74,1.161
7152,34.9297,3870.91,1.16429
7160,34.96875,3871.69,1.165241
7168,35.0078,3870.87,1.16743
7176,35.0469,3881.1,1.16707
7184,35.0859,3880.42,1.16875
7192,35.125,3888.93,1.17057
7200,35.1641,3891.15,1.172297
7208,35.2031,3881.82,1.17233
7216,35.2422,3900.73,1.17476
7224,35.28125,3895.79,1.17477
7232,35.3203,3899.28,1.17696
7240,35.3594,3904.76,1.18035
7248,35.3984,3914.94,1.17912
7256,35.4375,3919.21,1.18063
7264,35.4766,3911.62,1.18236
7272,35.5156,3933.41,1.18157
7280,35.5547,3933.23,1.18586
7288,35.59375,3918.18,1.18565
7296,35.6328,3935.99,1.18735
7304,35.6719,3941.23,1.189853
7312,35.7109,3936.18,1.18917
7320,35.75,3950.61,1.191541
7328,35.7891,3951.81,1.19179
7336,35.8281,3945.88,1.19419
7344,35.8672,3958.41,1.19599
7352,35.90625,3956.01,1.19577
7360,35.9453,3964.1,1.19935
7368,35.9844,3969.82,1.19829
7376,36.0234,3967.33,1.19939
7384,36.0625,3981.51,1.20264
7392,36.1016,3970.22,1.20129
7400,36.1406,3985.12,1.20386
7408,36.1797,3980.43,1.20504
7416,36.21875,3985.05,1.20726
7424,36.2578,4001.16,1.2094
7432,36.2969,3983.68,1.20967
7440,36.3359,4007.5,1.21022
7448,36.375,4015.45,1.21205
7456,36.4141,4009.97,1.21325
7464,36.4531,4017.99,1.21508
7472,36.4922,4018.43,1.21617
7480,36.53125,4027.46,1.21819
7488,36.5703,4018.8,1.2195
7496,36.6094,4034.09,1.21971
7504,36.6484,4044.78,1.22156
7512,36.6875,4040.13,1.22351
7520,36.7266,4034.59,1.22468
7528,36.7656,4042.12,1.2246
7536,36.8047,4043.52,1.2276
7544,36.84375,4067.31,1.22884
7552,36.8828,4051.88,1.22852
7560,36.9219,4063.22,1.23039
7568,36.9609,4065.09,1.234045
7576,37.0,4074.3,1.23213
7584,37.0391,4062.57,1.2353
7592,37.0781,4075.52,1.23655
7600,37.1172,4079.51,1.23738
7608,37.15625,4083.82,1.23922
7616,37.1953,4086.75,1.239
7624,37.2344,4099.11,1.2428
7632,37.2734,4088.65,1.24137
7640,37.3125,4105.31,1.24117
7648,37.3516,4099.5,1.24555
7656,37.3906,4097.19,1.24792
7664,37.4297,4108.97,1.24745
7672,37.46875,4117.2,1.24769
7680,37.5078,4114.56,1.25044
7688,37.5469,4124.72,1.2522
7696,37.5859,4117.52,1.25198
7704,37.625,4132.72,1.25464
7712,37.6641,4135.67,1.25655
7720,37.7031,4138.25,1.25517
7728,37.7422,4136.16,1.25704
7736,37.78125,4145.34,1.25869
7744,37.8203,4155.85,1.26053
7752,37.8594,4141.22,1.26194
7760,37.8984,4151.14,1.26202
7768,37.9375,4165.58,1.26517
7776,37.9766,4167.23,1.26591
7784,38.0156,4162.46,1.26632
7792,38.0547,4172.26,1.26853
7800,38.09375,4172.6,1.26986
7808,38.1328,4179.08,1.27038
7816,38.1719,4184.43,1.27327
7824,38.2109,4195.25,1.27327
7832,38.25,4193.59,1.27596
7840,38.2891,4203.06,1.276685
7848,38.3281,4203.65,1.27757
7856,38.3672,4196.15,1.27908
7864,38.40625,4210.14,1.28091
7872,38.4453,4208.21,1.28052
7880,38.4844,4203.28,1.283226
7888,38.5234,4218.42,1.28502
7896,38.5625,4215.73,1.28475
7904,38.6016,4221.67,1.28806
7912,38.6406,4246.46,1.28863
7920,38.6797,4234.51,1.28997
7928,38.71875,4223.05,1.28964
7936,38.7578,4243.57,1.29132
7944,38.7969,4235.21,1.29185
7952,38.8359,4238.86,1.29439
7960,38.875,4244.16,1.29582
7968,38.9141,4263.02,1.29773
7976,38.9531,4244.33,1.297431
7984,38.9922,4257.51,1.29943
7992,39.03125,4266.91,1.30113
8000,39.0703,4266.89,1.3031
8008,39.1094,4274.12,1.30248
8016,39.1484,4278.05,1.3042
8024,39.1875,4265.87,1.30562
8032,39.2266,4281.05,1.30861
8040,39.2656,4298.01,1.30905
8048,39.3047,4284.82,1.3086
8056,39.34375,4304.79,1.31255
8064,39.3828,4299.27,1.31321
8072,39.4219,4301.26,1.31299
8080,39.4609,4313.05,1.31538
8088,39.5,4316.62,1.31611
8096,39.5391,4316.4,1.31685
8104,39.5781,4306.45,1.32009
8112,39.6172,4324.09,1.31802
8120,39.65625,4327.73,1.32248
8128,39.6953,4320.73,1.32171
8136,39.7344,4334.31,1.3242
8144,39.7734,4329.7,1.32527
8152,39.8125,4325.22,1.32709
8160,39.8516,4344.75,1.32731
8168,39.8906,4352.92,1.32823
8176,39.9297,4351.41,1.33172
8184,39.96875,4359.42,1.33201
8192,40.0078,4357.08,1.33448
8200,40.0469,4365.63,1.3358
8208,40.0859,4362.91,1.336441
8216,40.125,4379.35,1.33718
8224,40.1641,4369.61,1.33936
8232,40.2031,4381.33,1.33933
8240,40.2422,4386.82,1.34253
8248,40.28125,4373.87,1.34021
8256,40.3203,4387.67,1.34419
8264,40.3594,4395.18,1.34603
8272,40.3984,4383.3,1.3458
8280,40.4375,4396.36,1.34793
8288,40.4766,4405.48,1.3488
8296,40.5156,4403.39,1.34922
8304,40.5547,4412.39,1.35282
8312,40.59375,4417.76,1.35176
8320,40.6328,4422.07,1.35523
8328,40.6719,4431.54,1.3543
8336,40.7109,4414.94,1.35447
8344,40.75,4430.69,1.35786
8352,40.7891,4430.2,1.35973
8360,40.8281,4445.39,1.36001
8368,40.8672,4449.12,1.36262
8376,40.90625,4442.42,1.36357
8384,40.9453,4450.56,1.36556
8392,40.9844,4449.08,1.364665
8400,41.0234,4455.4,1.36689
8408,41.0625,4466.22,1.36822
8416,41.1016,4454.46,1.36894
8424,41.1406,4460.51,1.37071
8432,41.1797,4478.21,1.3722
8440,41.21875,4475.9,1.373688
8448,41.2578,4472.83,1.37572
8456,41.2969,4477.16,1.37518
8464,41.3359,4489.76,1.38014
8472,41.375,4487.81,1.38011
8480,41.4141,4496.34,1.37991
8488,41.4531,4496.71,1.38249
8496,41.4922,4496.99,1.383
8504,41.53125,4499.45,1.38205
8512,41.5703,4503.44,1.38354
8520,41.6094,4505.02,1.38615
8528,41.6484,4515.89,1.38809
8536,41.6875,4520.94,1.38873
8544,41.7266,4515.93,1.38986
8552,41.7656,4535.94,1.39157
8560,41.8047,4531.8,1.39397
8568,41.84375,4527.09,1.394695
8576,41.8828,4539.69,1.3958
8584,41.9219,4554.23,1.39834
8592,41.9609,4538.98,1.398586
8600,42.0,4532.12,1.39803
8608,42.0391,4558.53,1.402688
8616,42.0781,4543.8,1.40339
8624,42.1172,4549.05,1.402756
8632,42.15625,4571.93,1.40597
8640,42.1953,4562.8,1.40562
8648,42.2344,4564.81,1.40716
8656,42.2734,4576.24,1.40874
8664,42.3125,4575.61,1.41002
8672,42.3516,4589.34,1.41113
8680,42.3906,4591.06,1.41146
8688,42.4297,4592.78,1.41493
8696,42.46875,4602.11,1.41543
8704,42.5078,4605.72,1.41695
8712,42.5469,4594.69,1.41845
8720,42.5859,4601.04,1.41848
8728,42.625,4611.69,1.42211
8736,42.6641,4607.73,1.42246
8744,42.7031,4608.48,1.42312
8752,42.7422,4617.49,1.42724
8760,42.78125,4624.69,1.42721
8768,42.8203,4616.16,1.42603
8776,42.8594,4627.03,1.42872
8784,42.8984,4628.26,1.42915
8792,42.9375,4631.17,1.430676
8800,42.9766,4634.51,1.43075
8808,43.0156,4637.49,1.43269
8816,43.0547,4649.98,1.43597
8824,43.09375,4650.29,1.43612
8832,43.1328,4662.49,1.43634
8840,43.1719,4648.53,1.43831
8848,43.2109,4656.09,1.43982
8856,43.25,4665.16,1.44234
8864,43.2891,4664.66,1.44281
8872,43.3281,4675.88,1.44357
8880,43.3672,4681.26,1.44592
8888,43.40625,4675.58,1.44612
8896,43.4453,4668.66,1.4478
8904,43.4844,4689.66,1.449
8912,43.5234,4686.81,1.45007
8920,43.5625,4689.74,1.45205
8928,43.6016,4705.15,1.452409
8936,43.6406,4701.75,1.45535
8944,43.6797,4704.69,1.45543
8952,43.71875,4707.8,1.45699
8960,43.7578,4712.48,1.45867
8968,43.7969,4701.83,1.46028
8976,43.8359,4722.69,1.4598
8984,43.875,4721.3,1.46183
8992,43.9141,4725.36,1.46421
9000,43.9531,4732.86,1.46444
9008,43.9922,4722.31,1.46538
9016,44.03125,4731.07,1.46762
9024,44.0703,4742.52,1.46912
9032,44.1094,4747.56,1.46926
9040,44.1484,4740.89,1.47169
9048,44.1875,4750.97,1.47187
9056,44.2266,4763.56,1.47389
9064,44.2656,4753.67,1.47532
9072,44.3047,4753.92,1.47652
9080,44.34375,4771.57,1.47838
9088,44.3828,4745.85,1.47813
9096,44.4219,4768.52,1.47957
9104,44.4609,4788.82,1.48246
9112,44.5,4765.46,1.48332
9120,44.5391,4774.6,1.48216
9128,44.5781,4785.65,1.48614
9136,44.6172,4788.49,1.48643
9144,44.65625,4790.31,1.48777
9152,44.6953,4798.4,1.48995
9160,44.7344,4806.88,1.49113
9168,44.7734,4804.22,1.49119
9176,44.8125,4803.09,1.493547
9184,44.8516,4805.07,1.49488
9192,44.8906,4815.33,1.4966
9200,44.9297,4818.12,1.49678
9208,44.96875,4817.24,1.49933
9216,45.0078,4825.47,1.50016
9224,45.0469,4830.25,1.50253
9232,45.0859,4833.55,1.50405
9240,45.125,4835.47,1.5021
9248,45.1641,4835.93,1.50547
9256,45.2031,4840.07,1.50547
9264,45.2422,4841.6,1.506561
9272,45.28125,4844.1,1.51049
9280,45.3203,4865.98,1.50974
9288,45.3594,4850.43,1.51085
9296,45.3984,4855.31,1.51122
9304,45.4375,4868.09,1.5136
9312,45.4766,4865.57,1.51635
9320,45.5156,4866.04,1.51699
9328,45.5547,4885.59,1.51834
9336,45.59375,4872.28,1.51974
9344,45.6328,4897.19,1.51988
9352,45.6719,4886.18,1.520952
9360,45.7109,4898.7,1.52115
9368,45.75,4897.2,1.524049
9376,45.7891,4898.68,1.525
9384,45.8281,4899.96,1.52669
9392,45.8672,4913.35,1.53015
9400,45.90625,4904.92,1.52872
9408,45.9453,4917.86,1.53015
9416,45.9844,4919.04,1.53263
9424,46.0234,4925.44,1.53419
9432,46.0625,4914.47,1.53412
9440,46.1016,4920.3,1.53486
9448,46.1406,4936.42,1.53875
9456,46.1797,4935.06,1.54006
9464,46.21875,4931.81,1.53973
9472,46.2578,4945.16,1.54086
9480,46.2969,4943.34,1.5431
9488,46.3359,4941.48,1.54353
9496,46.375,4949.69,1.54526
9504,46.4141,4950.08,1.54638
9512,46.4531,4958.81,1.54841
9520,46.4922,4964.82,1.549058
9528,46.53125,4964.11,1.54987
9536,46.5703,4970.72,1.55194
9544,46.6094,4972.65,1.55361
9552,46.6484,4983.16,1.5539
9560,46.6875,4961.77,1.55624
9568,46.7266,4991.19,1.55877
9576,46.7656,4989,1.55982
9584,46.8047,4978.67,1.56001
9592,46.84375,4998.13,1.56082
9600,46.8828,5000.77,1.56205
9608,46.9219,4997.61,1.56322
9616,46.9609,5002.46,1.56457
9624,47.0,5012.73,1.56561
9632,47.0391,5005.69,1.56745
9640,47.0781,5014.56,1.56855
9648,47.1172,5023.01,1.57048
9656,47.15625,5027.96,1.57274
9664,47.1953,5018.61,1.57153
9672,47.2344,5032.18,1.57489
9680,47.2734,5027.68,1.5749
9688,47.3125,5036.14,1.57758
9696,47.3516,5031.71,1.577965
9704,47.3906,5040.87,1.57874
9712,47.4297,5039.55,1.581949
9720,47.46875,5057.34,1.58195
9728,47.5078,5049.25,1.58157
9736,47.5469,5061.76,1.58392
9744,47.5859,5068.78,1.58595
9752,47.625,5068.03,1.58736
9760,47.6641,5060.97,1.588279
9768,47.7031,5069.81,1.58992
9776,47.7422,5083.5,1.5913
9784,47.78125,5065.46,1.590929
9792,47.8203,5086.01,1.59418
9800,47.8594,5088.97,1.5958
9808,47.8984,5077.91,1.59616
9816,47.9375,5092.08,1.59738
9824,47.9766,5095.33,1.59932
9832,48.0156,5091.37,1.600939
9840,48.0547,5097.44,1.60085
9848,48.09375,5107.63,1.60163
9856,48.1328,5107.14,1.60278
9864,48.1719,5110.16,1.60403
9872,48.2109,5118.77,1.60617
9880,48.25,5127.94,1.60803
9888,48.2891,5116.95,1.60824
9896,48.3281,5124.08,1.610738
9904,48.3672,5129.1,1.61093
9912,48.40625,5132.76,1.61413
9920,48.4453,5137.59,1.61522
9928,48.4844,5138.34,1.61585
9936,48.5234,5143.09,1.61759
9944,48.5625,5149.32,1.62019
9952,48.6016,5147.57,1.61893
9960,48.6406,5145.17,1.62044
9968,48.6797,5164.08,1.62081
9976,48.71875,5164.92,1.62372
9984,48.7578,5161.95,1.625644
9992,48.7969,5162.4,1.62524
10000,48.8359,5171.31,1.62915
10008,48.875,5171.8,1.6283
10016,48.9141,5163.66,1.63058
10024,48.9531,5183.01,1.6317
10032,48.9922,5172.22,1.63358
10040,49.03125,5188.31,1.63316
10048,49.0703,5183.23,1.63452
10056,49.1094,5187.68,1.635915
10064,49.1484,5188.43,1.63911
10072,49.1875,5194.95,1.63785
10080,49.2266,5203.05,1.63854
10088,49.2656,5201.72,1.642406
10096,49.3047,5209.81,1.64296
10104,49.34375,5210.92,1.64434
10112,49.3828,5223.18,1.64533
10120,49.4219,5217.6,1.64652
10128,49.4609,5221.33,1.64855
10136,49.5,5213.7,1.64827
10144,49.5391,5230.47,1.65114
10152,49.5781,5237.66,1.65204
10160,49.6172,5230.76,1.65192
10168,49.65625,5239.76,1.65383
10176,49.6953,5246.02,1.6563
10184,49.7344,5244.75,1.65791
10192,49.7734,5256.06,1.65706
10200,49.8125,5256.88,1.65943
10208,49.8516,5255.78,1.6632
10216,49.8906,5261.5,1.6631
10224,49.9297,5256.88,1.66389
10232,49.96875,5263.79,1.66461
10240,50.0078,5271.11,1.66604
10248,50.0469,5274.22,1.66726
10256,50.0859,5268.79,1.66992
10264,50.125,5289.91,1.66924
10272,50.1641,5287.31,1.671288
10280,50.2031,5276.13,1.67177
10288,50.2422,5298.21,1.67377
10296,50.28125,5294.81,1.67623
10304,50.3203,5285.72,1.67639
10312,50.3594,5296.07,1.67876
10320,50.3984,5306.33,1.67811
10328,50.4375,5304.28,1.68205
10336,50.4766,5298.34,1.68339
10344,50.5156,5317.46,1.68282
10352,50.5547,5324.43,1.685189
10360,50.59375,5310.58,1.68573
10368,50.6328,5319.89,1.68662
10376,50.6719,5322.25,1.68753
10384,50.7109,5318.58,1.69001
10392,50.75,5339.55,1.69163
10400,50.7891,5337.39,1.69093
10408,50.8281,5340.95,1.6943
10416,50.8672,5357.27,1.69595
10424,50.90625,5332.26,1.69605
10432,50.9453,5346.03,1.70012
10440,50.9844,5361.58,1.69924
10448,51.0234,5362.94,1.69956
10456,51.0625,5356.86,1.70168
10464,51.1016,5361.97,1.70383
10472,51.1406,5360.57,1.70481
10480,51.1797,5356.81,1.70685
10488,51.21875,5379.17,1.70702
10496,51.2578,5374.93,1.70962
10504,51.2969,5378.73,1.70734
10512,51.3359,5374.96,1.709944
10520,51.375,5391.84,1.71149
10528,51.4141,5385.42,1.71363
10536,51.4531,5390.39,1.71502
10544,51.4922,5395.02,1.71475
10552,51.53125,5406.26,1.71869
10560,51.5703,5411.8,1.71837
10568,51.6094,5408.67,1.71875
10576,51.6484,5409.83,1.72041
10584,51.6875,5413.75,1.72246
10592,51.7266,5416.07,1.72318
10600,51.7656,5414.99,1.72555
10608,51.8047,5415.24,1.72709
10616,51.84375,5433.05,1.729238
10624,51.8828,5419.69,1.72941
10632,51.9219,5427.86,1.72926
10640,51.9609,5444.96,1.73204
10648,52.0,5422.65,1.733197
10656,52.0391,5433.19,1.73301
10664,52.0781,5448.44,1.73482
10672,52.1172,5438.65,1.73702
10680,52.15625,5444.81,1.73656
10688,52.1953,5457.93,1.73785
10696,52.2344,5448.4,1.74162
10704,52.2734,5449.01,1.740464
10712,52.3125,5452.15,1.74247
10720,52.3516,5471.71,1.7455
10728,52.3906,5472.39,1.74721
10736,52.4297,5476.47,1.74789
10744,52.46875,5476.37,1.74919
10752,52.5078,5481.66,1.74943
10760,52.5469,5486.61,1.7516
10768,52.5859,5481.39,1.75321
10776,52.625,5482.26,1.75361
10784,52.6641,5487.04,1.75428
10792,52.7031,5503.36,1.7565
10800,52.7422,5493.35,1.75784
10808,52.78125,5498.01,1.75973
10816,52.8203,5514.96,1.76251
10824,52.8594,5512.87,1.76195
10832,52.8984,5501.1,1.76209
10840,52.9375,5531.76,1.763159
10848,52.9766,5512.75,1.76575
10856,53.0156,5515.02,1.766839
10864,53.0547,5519.24,1.76824
10872,53.09375,5520.89,1.76749
10880,53.1328,5526.74,1.76973
10888,53.1719,5538.82,1.770376
10896,53.2109,5532.29,1.77239
10904,53.25,5548.83,1.77403
10912,53.2891,5537.44,1.77485
10920,53.3281,5544.2,1.77593
10928,53.3672,5545.77,1.7797
10936,53.40625,5555.74,1.778301
10944,53.4453,5559.22,1.78098
10952,53.4844,5559.41,1.78174
10960,53.5234,5557.42,1.78324
10968,53.5625,5572.12,1.78485
10976,53.6016,5564.1,1.7848
10984,53.6406,5574.31,1.78802
10992,53.6797,5578.77,1.78933
11000,53.71875,5572.49,1.79021
11008,53.7578,5574.39,1.791569
11016,53.7969,5594.07,1.79312
11024,53.8359,5582.94,1.79477
11032,53.875,5580.57,1.796068
11040,53.9141,5593.54,1.79579
11048,53.9531,5601.5,1.79721
11056,53.9922,5592.86,1.79946
11064,54.03125,5605.46,1.80066
11072,54.0703,5607.25,1.8037
11080,54.1094,5601.65,1.80253
11088,54.1484,5607.34,1.80455
11096,54.1875,5609.13,1.80558
11104,54.2266,5615.62,1.80636
11112,54.2656,5627.54,1.80843
11120,54.3047,5612.96,1.80791
11128,54.34375,5625.33,1.81102
11136,54.3828,5629.36,1.8124
11144,54.4219,5640.98,1.81272
11152,54.4609,5638.32,1.81394
11160,54.5,5639.29,1.8161
11168,54.5391,5643.83,1.819135
11176,54.5781,5637.98,1.8192
11184,54.6172,5647.87,1.81894
11192,54.65625,5661.99,1.82212
11200,54.6953,5653.48,1.82319
11208,54.7344,5654.36,1.82293
11216,54.7734,5669.31,1.82533
11224,54.8125,5665.13,1.82712
11232,54.8516,5658.14,1.82725
11240,54.8906,5674.97,1.82813
11248,54.9297,5684.02,1.83046
11256,54.96875,5678.83,1.83251
11264,55.0078,5678.86,1.83223
11272,55.0469,5683.79,1.8356
11280,55.0859,3001.9,1.83967
11281,55.0908,-1272.9,1.86537