File: ASM109_2021_data/MTS/90/MTS_90_9.csv
,Time [s],Load [N],Displacement [mm]
0,0.0078125,-360.272,0.00173807
8,0.046875,-350.004,-0.000436306
16,0.0859375,-334.532,0.00196695
24,0.125,-334.98,0.00297546
32,0.1640625,-324.599,0.00458837
40,0.203125,-321.807,0.00497103
48,0.2421875,-320.216,0.00828266
56,0.28125,-315.77,0.00855803
64,0.3203125,-317.931,0.00938773
72,0.359375,-305.297,0.0118268
80,0.3984375,-292.917,0.0124991
88,0.4375,-295.078,0.0146163
96,0.4765625,-287.071,0.0159252
104,0.515625,-285.677,0.0155461
112,0.5546875,-276.748,0.0180066
120,0.59375,-272.533,0.0183606
128,0.6328125,-264.924,0.0208533
136,0.671875,-275.65,0.0201166
144,0.7109375,-277.988,0.0221765
152,0.75,-249.379,0.0236678
160,0.7890625,-249.75,0.02540946
168,0.828125,-243.686,0.0244153
176,0.8671875,-240.227,0.0272048
184,0.90625,-233.741,0.0284672
192,0.9453125,-235.775,0.0311923
200,0.984375,-218.858,0.0305629
208,1.02344,-217.998,0.0317109
216,1.0625,-210.1,0.0342393
224,1.10156,-198.183,0.0347686
232,1.140625,-201.039,0.0362813
240,1.17969,-192.649,0.03813386
248,1.21875,-184.325,0.0395393
256,1.25781,-179.605,0.0406051
264,1.296875,-183.21,0.041213
272,1.33594,-174.791,0.043391
280,1.375,-174.121,0.044024
288,1.41406,-174.987,0.0456154
296,1.453125,-157.828,0.0468135
304,1.49219,-152.205,0.04848361
312,1.53125,-152.748,0.0498033
320,1.57031,-137.601,0.05115509
328,1.609375,-130.269,0.0525463
336,1.64844,-144.967,0.0540304
344,1.6875,-123.218,0.0551212
352,1.72656,-117.067,0.0567126
360,1.765625,-114.801,0.0575888
368,1.80469,-101.299,0.0565195
376,1.84375,-101.108,0.06136179
384,1.88281,-96.5172,0.0602496
392,1.921875,-93.1852,0.0631356
400,1.96094,-85.0931,0.0633967
408,2.0,-87.9445,0.0655603
416,2.03906,-78.719,0.06611824
424,2.078125,-74.6944,0.0686109
432,2.11719,-73.316,0.0686824
440,2.15625,-62.8336,0.07024169
448,2.19531,-65.7827,0.0711858
456,2.234375,-63.9094,0.0731206
464,2.27344,-48.9351,0.0731635
472,2.3125,-39.1933,0.0754094
480,2.35156,-51.8689,0.0767004
488,2.390625,-26.1079,0.0784028
496,2.42969,-30.6868,0.0788248
504,2.46875,-32.2149,0.0799048
512,2.50781,-25.3738,0.08077383
520,2.546875,-20.0338,0.08219
528,2.58594,-8.25696,0.0838602
536,2.625,5.15431,0.0871468
544,2.66406,-1.16026,0.0886381
552,2.703125,0.716338,0.0883698
560,2.74219,26.4785,0.0911701
568,2.78125,23.3005,0.0910056
576,2.82031,18.2161,0.0936735
584,2.859375,32.6286,0.0950396
592,2.89844,33.8947,0.0943816
600,2.9375,41.474,0.09709239
608,2.97656,47.9349,0.0993097
616,3.015625,48.6779,0.0992775
624,3.05469,52.8001,0.101116
632,3.09375,59.0975,0.101806
640,3.13281,65.4897,0.103201
648,3.171875,71.0376,0.104334
656,3.21094,73.4741,0.106115
664,3.25,93.6253,0.106956
672,3.28906,75.728,0.107317
680,3.328125,87.9873,0.108794
688,3.36719,105.59,0.110493
696,3.40625,91.4549,0.11109
704,3.44531,99.7487,0.114723
712,3.484375,106.407,0.1139009
720,3.52344,107.589,0.115718
728,3.5625,128.94,0.116984
736,3.60156,132.104,0.119709
744,3.640625,130.332,0.1194191
752,3.67969,137.653,0.120395
760,3.71875,146.991,0.122931
768,3.75781,139.888,0.123389
776,3.796875,146.239,0.125406
784,3.83594,163.633,0.125195
792,3.875,158.534,0.129461
800,3.91406,168.371,0.12797
808,3.953125,178.54,0.129515
816,3.99219,175.388,0.131578
824,4.03125,175.958,0.133849
832,4.07031,195.026,0.135273
840,4.109375,187.842,0.134665
848,4.14844,194.819,0.136789
856,4.1875,203.082,0.137898
864,4.22656,205.986,0.139321
872,4.265625,226.045,0.140798
880,4.30469,219.547,0.141574
888,4.34375,219.068,0.143291
896,4.38281,236.675,0.145365
904,4.421875,231.199,0.144954
912,4.46094,239.508,0.146778
920,4.5,245.816,0.148884
928,4.53906,257.449,0.150375
936,4.578125,259.249,0.150701
944,4.61719,248.387,0.152571
952,4.65625,263.214,0.154824
960,4.69531,268.724,0.155525
968,4.734375,277.82,0.155364
976,4.77344,286.093,0.158654
984,4.8125,266.793,0.1577425
992,4.85156,284.727,0.160371
1000,4.890625,296.177,0.162771
1008,4.92969,304.955,0.162123
1016,4.96875,311.701,0.164348
1024,5.00781,317.44,0.1665616
1032,5.046875,305.456,0.166161
1040,5.08594,331.348,0.167184
1048,5.125,330.493,0.169033
1056,5.16406,327.333,0.171061
1064,5.203125,341.23,0.171855
1072,5.24219,342.499,0.1743865
1080,5.28125,334.034,0.174472
1088,5.32031,350.477,0.17596
1096,5.359375,364.484,0.176682
1104,5.39844,349.156,0.179261
1112,5.4375,363.915,0.180902
1120,5.47656,367.772,0.181972
1128,5.515625,376.759,0.181339
1136,5.55469,380.519,0.183524
1144,5.59375,391.698,0.185348
1152,5.63281,392.759,0.187547
1160,5.671875,395.162,0.189368
1168,5.71094,392.621,0.188137
1176,5.75,405.216,0.190297
1184,5.78906,408.048,0.191982
1192,5.828125,409.987,0.193527
1200,5.86719,415.678,0.195905
1208,5.90625,418.365,0.195326
1216,5.94531,428.807,0.197657
1224,5.984375,425.058,0.199825
1232,6.02344,428.885,0.200168
1240,6.0625,445.794,0.2009511
1248,6.10156,453.908,0.201302
1256,6.140625,452.781,0.203769
1264,6.17969,460.167,0.204363
1272,6.21875,472.059,0.206305
1280,6.25781,457.549,0.206888
1288,6.296875,477.655,0.208018
1296,6.33594,490.295,0.210693
1304,6.375,473.074,0.212188
1312,6.41406,492.664,0.212309
1320,6.453125,501.166,0.215142
1328,6.49219,497.068,0.214874
1336,6.53125,515.825,0.218536
1344,6.57031,514,0.21796
1352,6.609375,502.729,0.221089
1360,6.64844,531.15,0.220706
1368,6.6875,524.984,0.22095
1376,6.72656,530.665,0.223042
1384,6.765625,534.516,0.224819
1392,6.80469,539.644,0.224698
1400,6.84375,541.369,0.226883
1408,6.88281,562.404,0.227952
1416,6.921875,546.933,0.229418
1424,6.96094,568.55,0.231518
1432,7.0,564.317,0.230842
1440,7.03906,575.294,0.231003
1448,7.078125,572.893,0.234886
1456,7.11719,581.585,0.23577
1464,7.15625,579.876,0.239482
1472,7.19531,587.593,0.238363
1480,7.234375,601.55,0.239328
1488,7.27344,603.854,0.242404
1496,7.3125,599.877,0.242339
1504,7.35156,617.132,0.244349
1512,7.390625,612.744,0.244678
1520,7.42969,614.721,0.244979
1528,7.46875,628.878,0.248322
1536,7.50781,627.253,0.247965
1544,7.546875,620.435,0.24981
1552,7.58594,633.145,0.2513051
1560,7.625,644.209,0.2521956
1568,7.66406,642.142,0.254123
1576,7.703125,663.075,0.2562511
1584,7.74219,658.705,0.257177
1592,7.78125,661.807,0.259105
1600,7.82031,675.942,0.260582
1608,7.859375,683.848,0.261487
1616,7.89844,672.256,0.262306
1624,7.9375,690.751,0.263507
1632,7.97656,680.566,0.2637
1640,8.015625,687.958,0.266004
1648,8.05469,700.967,0.268042
1656,8.09375,704.712,0.268571
1664,8.13281,708.445,0.268908
1672,8.171875,713.124,0.270864
1680,8.21094,712.539,0.272816
1688,8.25,716.914,0.274748
1696,8.28906,724.27,0.274698
1704,8.328125,732.538,0.277183
1712,8.36719,730.943,0.276586
1720,8.40625,743.343,0.278213
1728,8.44531,750.491,0.281893
1736,8.484375,746.669,0.2810955
1744,8.52344,758.065,0.283155
1752,8.5625,767.074,0.284793
1760,8.60156,768.795,0.284958
1768,8.640625,773.689,0.287493
1776,8.67969,780.283,0.2876687
1784,8.71875,780.061,0.28931
1792,8.75781,785.948,0.288577
1800,8.796875,791.297,0.292622
1808,8.83594,802.987,0.29279
1816,8.875,799.406,0.295272
1824,8.91406,814.492,0.295118
1832,8.953125,806.987,0.296345
1840,8.99219,816.131,0.297704
1848,9.03125,831.934,0.299395
1856,9.07031,812.153,0.301352
1864,9.109375,833.295,0.302081
1872,9.14844,842.32,0.302829
1880,9.1875,841.281,0.306072
1888,9.22656,848.968,0.306298
1896,9.265625,844.876,0.306398
1904,9.30469,847.397,0.308604
1912,9.34375,868.685,0.310403
1920,9.38281,865.502,0.311168
1928,9.421875,862.586,0.313007
1936,9.46094,870.852,0.313876
1944,9.5,885.296,0.3133285
1952,9.53906,889.852,0.315406
1960,9.578125,894.065,0.318092
1968,9.61719,886.595,0.31934
1976,9.65625,895.397,0.320116
1984,9.69531,907.451,0.321014
1992,9.734375,910.74,0.322498
2000,9.77344,914.092,0.32356
2008,9.8125,929.514,0.325238
2016,9.85156,923.76,0.32704
2024,9.890625,928.321,0.326679
2032,9.92969,931.863,0.32974
2040,9.96875,933.045,0.330698
2048,10.0078,948.583,0.331932
2056,10.0469,955.321,0.333295
2064,10.0859,952.217,0.33499
2072,10.125,957.254,0.336249
2080,10.1641,963.732,0.337676
2088,10.2031,980.915,0.338287
2096,10.2422,972.229,0.339539
2104,10.28125,990.828,0.342897
2112,10.3203,991.131,0.34102
2120,10.3594,988.809,0.343437
2128,10.3984,980.069,0.343916
2136,10.4375,998.822,0.346842
2144,10.4766,998.617,0.3479147
2152,10.5156,1010.73,0.349556
2160,10.5547,1011.35,0.350736
2168,10.59375,1013.37,0.352292
2176,10.6328,1018.2,0.353018
2184,10.6719,1040.41,0.354867
2192,10.7109,1041.23,0.35486
2200,10.75,1042.65,0.3565836
2208,10.7891,1048.1,0.358382
2216,10.8281,1051.5,0.358948
2224,10.8672,1049.86,0.361243
2232,10.90625,1058.96,0.361036
2240,10.9453,1059.1,0.363142
2248,10.9844,1075.78,0.364956
2256,11.0234,1079.27,0.36605
2264,11.0625,1077.8,0.367008
2272,11.1016,1077.97,0.369229
2280,11.1406,1087.45,0.36993
2288,11.1797,1088.39,0.368639
2296,11.21875,1092.96,0.371815
2304,11.2578,1108,0.374544
2312,11.2969,1099.34,0.373288
2320,11.3359,1113.83,0.37547
2328,11.375,1121.23,0.378088
2336,11.4141,1126.1,0.379565
2344,11.4531,1118.7,0.380813
2352,11.4922,1139.26,0.381464
2360,11.53125,1129.37,0.382655
2368,11.5703,1136.48,0.384521
2376,11.6094,1157.5,0.387615
2384,11.6484,1165.65,0.387597
2392,11.6875,1141.59,0.386864
2400,11.7266,1164.74,0.389539
2408,11.7656,1164.24,0.390937
2416,11.8047,1177.17,0.392468
2424,11.84375,1182.58,0.393333
2432,11.8828,1176.68,0.394596
2440,11.9219,1188.71,0.3959012
2448,11.9609,1201.24,0.397038
2456,12.0,1197.44,0.399517
2464,12.0391,1198.99,0.399352
2472,12.0781,1201.57,0.401216
2480,12.1172,1200.76,0.401516
2488,12.15625,1207.32,0.404291
2496,12.1953,1225.86,0.404745
2504,12.2344,1225.13,0.40609
2512,12.2734,1225.84,0.406469
2520,12.3125,1230.63,0.408211
2528,12.3516,1226.52,0.411122
2536,12.3906,1239.05,0.411147
2544,12.4297,1242.27,0.414147
2552,12.46875,1246.23,0.415413
2560,12.5078,1259.42,0.414634
2568,12.5469,1266.58,0.416944
2576,12.5859,1274.21,0.418886
2584,12.625,1265.99,0.417591
2592,12.6641,1277.77,0.419805
2600,12.7031,1284.7,0.420896
2608,12.7422,1291.68,0.424966
2616,12.78125,1287.32,0.424072
2624,12.8203,1296.97,0.42684
2632,12.8594,1306.77,0.429136
2640,12.8984,1291.83,0.4271543
2648,12.9375,1310,0.43111
2656,12.9766,1301.13,0.43209
2664,13.0156,1315.28,0.433602
2672,13.0547,1329.02,0.435759
2680,13.09375,1334,0.436267
2688,13.1328,1337.94,0.436567
2696,13.1719,1339.01,0.437472
2704,13.2109,1332.45,0.438598
2712,13.25,1345.41,0.439314
2720,13.2891,1343.93,0.440862
2728,13.3281,1350.03,0.443408
2736,13.3672,1369.96,0.44481
2744,13.40625,1363.72,0.445733
2752,13.4453,1361.33,0.448215
2760,13.4844,1373.33,0.448487
2768,13.5234,1385.28,0.4493916
2776,13.5625,1389.28,0.450611
2784,13.6016,1389.07,0.4519701
2792,13.6406,1386.97,0.453408
2800,13.6797,1397.03,0.455003
2808,13.71875,1404.34,0.456008
2816,13.7578,1396.82,0.457302
2824,13.7969,1417.93,0.457864
2832,13.8359,1418.42,0.461261
2840,13.875,1419.12,0.461451
2848,13.9141,1426.24,0.461444
2856,13.9531,1428.86,0.462921
2864,13.9922,1424.72,0.465099
2872,14.03125,1447.19,0.466604
2880,14.0703,1445.91,0.467877
2888,14.1094,1439.63,0.4684031
2896,14.1484,1454.7,0.47174
2904,14.1875,1463.84,0.471579
2912,14.2266,1457.78,0.472934
2920,14.2656,1462.42,0.474805
2928,14.3047,1475.81,0.473835
2936,14.34375,1482.26,0.4779768
2944,14.3828,1486.82,0.479096
2952,14.4219,1479.85,0.47857
2960,14.4609,1494.66,0.480963
2968,14.5,1488.65,0.481417
2976,14.5391,1495.38,0.484486
2984,14.5781,1500.43,0.484782
2992,14.6172,1516.58,0.486789
3000,14.65625,1514.76,0.487175
3008,14.6953,1512.54,0.487468
3016,14.7344,1520.08,0.490726
3024,14.7734,1538.64,0.492128
3032,14.8125,1533.17,0.492339
3040,14.8516,1525.28,0.4923
3048,14.8906,1536.51,0.49544
3056,14.9297,1551.12,0.494835
3064,14.96875,1543.19,0.49848
3072,15.0078,1555.91,0.498773
3080,15.0469,1563.59,0.499152
3088,15.0859,1553.41,0.501169
3096,15.125,1574.54,0.501723
3104,15.1641,1573.47,0.50408
3112,15.2031,1575.02,0.505092
3120,15.2422,1583.99,0.506984
3128,15.28125,1578.95,0.508243
3136,15.3203,1605.78,0.5111146
3144,15.3594,1596.9,0.51257
3152,15.3984,1594.88,0.511651
3160,15.4375,1614.32,0.512416
3168,15.4766,1604.38,0.515045
3176,15.5156,1611.36,0.51536
3184,15.5547,1623.8,0.518024
3192,15.59375,1621.54,0.518121
3200,15.6328,1635.83,0.521647
3208,15.6719,1631.31,0.521379
3216,15.7109,1638.05,0.522294
3224,15.75,1642.4,0.523185
3232,15.7891,1647.1,0.524358
3240,15.8281,1649.84,0.524983
3248,15.8672,1666.52,0.527755
3256,15.90625,1656,0.529912
3264,15.9453,1655.96,0.531349
3272,15.9844,1673.68,0.532765
3280,16.0234,1670.15,0.531996
3288,16.0625,1677.9,0.535902
3296,16.1016,1687.71,0.534875
3304,16.1406,1687.21,0.537257
3312,16.1797,1689.55,0.538148
3320,16.21875,1707.6,0.539968
3328,16.2578,1699.09,0.541302
3336,16.2969,1705.44,0.54122
3344,16.3359,1715.9,0.543312
3352,16.375,1715.63,0.544027
3360,16.4141,1715.52,0.546162
3368,16.4531,1726.74,0.547249
3376,16.4922,1732.14,0.548694
3384,16.53125,1736.15,0.549814
3392,16.5703,1737.96,0.551426
3400,16.6094,1747.13,0.55373
3408,16.6484,1757.36,0.554845
3416,16.6875,1766.97,0.555722
3424,16.7266,1759.24,0.555325
3432,16.7656,1768.82,0.558139
3440,16.8047,1766.41,0.557567
3448,16.84375,1780.38,0.560564
3456,16.8828,1779.79,0.561715
3464,16.9219,1785.38,0.562513
3472,16.9609,1787.71,0.564737
3480,17.0,1787.48,0.56428
3488,17.0391,1794.44,0.565646
3496,17.0781,1805.1,0.567895
3504,17.1172,1793.09,0.5685246
3512,17.15625,1807.62,0.570889
3520,17.1953,1823.62,0.571511
3528,17.2344,1820.49,0.573349
3536,17.2734,1824.96,0.574265
3544,17.3125,1827.29,0.5741
3552,17.3516,1824.52,0.577244
3560,17.3906,1840.68,0.580094
3568,17.4297,1837.12,0.579733
3576,17.46875,1839.77,0.582347
3584,17.5078,1847.71,0.5818069
3592,17.5469,1858.1,0.583112
3600,17.5859,1865.17,0.585923
3608,17.625,1866.34,0.58549
3616,17.6641,1862.05,0.58671
3624,17.7031,1869.62,0.588269
3632,17.7422,1883.62,0.589525
3640,17.78125,1885.84,0.591298
3648,17.8203,1889.28,0.59108
3656,17.8594,1889.11,0.592604
3664,17.8984,1881.4,0.595243
3672,17.9375,1897.99,0.597246
3680,17.9766,1902.15,0.598176
3688,18.0156,1910.34,0.597957
3696,18.0547,1907.94,0.599331
3704,18.09375,1910.77,0.601069
3712,18.1328,1915.88,0.604942
3720,18.1719,1929,0.604219
3728,18.2109,1926.48,0.60462
3736,18.25,1945.96,0.606097
3744,18.2891,1934.8,0.609148
3752,18.3281,1941.91,0.609816
3760,18.3672,1947.47,0.610435
3768,18.40625,1950.56,0.611647
3776,18.4453,1961.83,0.6138432
3784,18.4844,1961.8,0.614297
3792,18.5234,1963.61,0.61596
3800,18.5625,1985.35,0.616847
3808,18.6016,1970.85,0.617967
3816,18.6406,1990.04,0.620427
3824,18.6797,1990.57,0.6210351
3832,18.71875,1987.84,0.622072
3840,18.7578,1993.17,0.624844
3848,18.7969,2002.86,0.62385
3856,18.8359,2011.71,0.627222
3864,18.875,2011.09,0.6268
3872,18.9141,2022.27,0.628502
3880,18.9531,2013.67,0.629132
3888,18.9922,2017.7,0.631281
3896,19.03125,2026.18,0.632451
3904,19.0703,2036.82,0.6353116
3912,19.1094,2025.26,0.635458
3920,19.1484,2042.67,0.636381
3928,19.1875,2036.77,0.637153
3936,19.2266,2055.29,0.638888
3944,19.2656,2055.32,0.639603
3952,19.3047,2053.62,0.6415379
3960,19.34375,2068.99,0.643308
3968,19.3828,2072.54,0.644367
3976,19.4219,2068.62,0.646216
3984,19.4609,2083.68,0.646334
3992,19.5,2080.82,0.647446
4000,19.5391,2088.49,0.651058
4008,19.5781,2081.75,0.650454
4016,19.6172,2100.51,0.6518662
4024,19.65625,2109.5,0.65374
4032,19.6953,2107.35,0.655489
4040,19.7344,2106.93,0.656737
4048,19.7734,2109.78,0.657388
4056,19.8125,2115.63,0.658972
4064,19.8516,2117.63,0.661254
4072,19.8906,2127.1,0.660467
4080,19.9297,2126.93,0.662366
4088,19.96875,2135.19,0.662949
4096,20.0078,2148.89,0.666139
4104,20.0469,2149.88,0.666275
4112,20.0859,2148.97,0.667838
4120,20.125,2163.45,0.66978
4128,20.1641,2147.5,0.671918
4136,20.2031,2161.05,0.671736
4144,20.2422,2170.03,0.672308
4152,20.28125,2165.99,0.6732738
4160,20.3203,2187.82,0.676857
4168,20.3594,2183.08,0.677984
4176,20.3984,2184.52,0.678141
4184,20.4375,2196.64,0.679207
4192,20.4766,2187.44,0.682747
4200,20.5156,2196.22,0.680763
4208,20.5547,2207.23,0.6837523
4216,20.59375,2209.9,0.685176
4224,20.6328,2207.09,0.686646
4232,20.6719,2214.64,0.6882906
4240,20.7109,2220.43,0.689392
4248,20.75,2220.24,0.690966
4256,20.7891,2227.1,0.691427
4264,20.8281,2234.71,0.691634
4272,20.8672,2244.47,0.694796
4280,20.90625,2247.89,0.695618
4288,20.9453,2242.95,0.697589
4296,20.9844,2262.43,0.699123
4304,21.0234,2247.19,0.700064
4312,21.0625,2264.65,0.699456
4320,21.1016,2270.07,0.700951
4328,21.1406,2272.96,0.702449
4336,21.1797,2273.61,0.70595
4344,21.21875,2278.04,0.705403
4352,21.2578,2283.85,0.708092
4360,21.2969,2293.18,0.708665
4368,21.3359,2290.75,0.710624
4376,21.375,2297.45,0.711297
4384,21.4141,2296.25,0.711654
4392,21.4531,2300.37,0.71478
4400,21.4922,2318.2,0.715345
4408,21.53125,2313.56,0.717105
4416,21.5703,2319.74,0.717555
4424,21.6094,2325.83,0.718056
4432,21.6484,2332.08,0.718771
4440,21.6875,2333.62,0.721564
4448,21.7266,2335.26,0.722466
4456,21.7656,2345.91,0.725251
4464,21.8047,2329.37,0.725162
4472,21.84375,2351.75,0.726078
4480,21.8828,2355.11,0.727032
4488,21.9219,2363.37,0.730101
4496,21.9609,2368.31,0.732161
4504,22.0,2369.37,0.732447
4512,22.0391,2375.33,0.732454
4520,22.0781,2384.04,0.7359302
4528,22.1172,2383.93,0.734961
4536,22.15625,2387.24,0.736953
4544,22.1953,2381,0.7384944
4552,22.2344,2402.48,0.740483
4560,22.2734,2410.69,0.738609
4568,22.3125,2398.11,0.741488
4576,22.3516,2402.08,0.74338
4584,22.3906,2409.84,0.745422
4592,22.4297,2420.66,0.747035
4600,22.46875,2424.35,0.749005
4608,22.5078,2426.31,0.748683
4616,22.5469,2428.53,0.750428
4624,22.5859,2432.04,0.750883
4632,22.625,2437.67,0.752417
4640,22.6641,2433.51,0.755521
4648,22.7031,2451.9,0.754795
4656,22.7422,2460.54,0.757291
4664,22.78125,2460.65,0.758207
4672,22.8203,2449.54,0.7580781
4680,22.8594,2460.64,0.761082
4688,22.8984,2472.69,0.762216
4696,22.9375,2469.38,0.763003
4704,22.9766,2474.93,0.76444
4712,23.0156,2469.87,0.766182
4720,23.0547,2483.96,0.766693
4728,23.09375,2497.82,0.769955
4736,23.1328,2497.48,0.768038
4744,23.1719,2492.38,0.77145
4752,23.2109,2488.64,0.773596
4760,23.25,2511.48,0.773753
4768,23.2891,2508.37,0.774854
4776,23.3281,2514.42,0.776192
4784,23.3672,2523.63,0.778559
4792,23.40625,2526.33,0.777426
4800,23.4453,2530.04,0.779074
4808,23.4844,2536.98,0.781732
4816,23.5234,2544.01,0.782329
4824,23.5625,2544.99,0.784886
4832,23.6016,2555.7,0.785497
4840,23.6406,2553.79,0.786145
4848,23.6797,2554.21,0.78848
4856,23.71875,2562.3,0.789553
4864,23.7578,2576.14,0.791159
4872,23.7969,2575.9,0.7918632
4880,23.8359,2577.5,0.793723
4888,23.875,2595,0.794113
4896,23.9141,2583.06,0.795668
4904,23.9531,2597.65,0.796881
4912,23.9922,2582.01,0.796874
4920,24.03125,2589.02,0.799602
4928,24.0703,2597.93,0.800543
4936,24.1094,2618.48,0.802985
4944,24.1484,2620.06,0.804645
4952,24.1875,2608.09,0.805957
4960,24.2266,2626.83,0.804745
4968,24.2656,2623.25,0.807921
4976,24.3047,2627.85,0.808829
4984,24.34375,2630.99,0.811579
4992,24.3828,2640.45,0.811408
5000,24.4219,2646.47,0.811805
5008,24.4609,2655.94,0.814891
5016,24.5,2654.32,0.81473
5024,24.5391,2651.44,0.817627
5032,24.5781,2649.47,0.817956
5040,24.6172,2667.59,0.818746
5048,24.65625,2670.68,0.821257
5056,24.6953,2668.54,0.821707
5064,24.7344,2678.23,0.823578
5072,24.7734,2679.33,0.824597
5080,24.8125,2678.13,0.82484
5088,24.8516,2688.15,0.826896
5096,24.8906,2705.5,0.828942
5104,24.9297,2693.26,0.829529
5112,24.96875,2708.47,0.831023
5120,25.0078,2707.63,0.831152
5128,25.0469,2722.72,0.834653
5136,25.0859,2708.78,0.835297
5144,25.125,2720.13,0.835655
5152,25.1641,2727.28,0.836767
5160,25.2031,2733.06,0.839345
5168,25.2422,2731.36,0.839753
5176,25.28125,2746.17,0.84079
5184,25.3203,2743.51,0.8423388
5192,25.3594,2754.58,0.844871
5200,25.3984,2743.43,0.845625
5208,25.4375,2756.07,0.848054
5216,25.4766,2758.01,0.848808
5224,25.5156,2763.05,0.84868
5232,25.5547,2772.07,0.851516
5240,25.59375,2780.47,0.852066
5248,25.6328,2770.93,0.853726
5256,25.6719,2781.92,0.854069
5264,25.7109,2785.13,0.855825
5272,25.75,2790.14,0.856422
5280,25.7891,2796.79,0.859362
5288,25.8281,2794.99,0.860056
5296,25.8672,2805.39,0.861744
5304,25.90625,2806.29,0.861511
5312,25.9453,2811.28,0.86419
5320,25.9844,2824.22,0.865134
5328,26.0234,2818.34,0.865574
5336,26.0625,2819.46,0.868067
5344,26.1016,2834.04,0.868224
5352,26.1406,2832.47,0.871553
5360,26.1797,2837.77,0.8714
5368,26.21875,2835.95,0.872043
5376,26.2578,2845.86,0.874683
5384,26.2969,2843.54,0.874922
5392,26.3359,2856.11,0.877161
5400,26.375,2850.08,0.878284
5408,26.4141,2861.18,0.8803153
5416,26.4531,2864.66,0.879897
5424,26.4922,2869.97,0.881814
5432,26.53125,2877.5,0.883824
5440,26.5703,2871.5,0.8854723
5448,26.6094,2875.29,0.884732
5456,26.6484,2887.09,0.885998
5464,26.6875,2898.7,0.887861
5472,26.7266,2896.55,0.891266
5480,26.7656,2908.49,0.892103
5488,26.8047,2904.12,0.891942
5496,26.84375,2914.1,0.893551
5504,26.8828,2907.01,0.895221
5512,26.9219,2930.57,0.895282
5520,26.9609,2920.82,0.897131
5528,27.0,2926.17,0.898554
5536,27.0391,2932.65,0.900446
5544,27.0781,2947.45,0.901651
5552,27.1172,2937.4,0.902628
5560,27.15625,2955.74,0.905349
5568,27.1953,2946.92,0.904723
5576,27.2344,2947.05,0.90609
5584,27.2734,2962.29,0.9082
5592,27.3125,2960.46,0.909262
5600,27.3516,2967.31,0.90973
5608,27.3906,2973.25,0.911704
5616,27.4297,2974.11,0.913185
5624,27.46875,2979.59,0.914862
5632,27.5078,2980.84,0.915359
5640,27.5469,2989.75,0.916886
5648,27.5859,2990.95,0.918717
5656,27.625,2999.7,0.920073
5664,27.6641,3002.96,0.921911
5672,27.7031,2995.06,0.92092
5680,27.7422,3010.58,0.924761
5688,27.78125,3019.96,0.924486
5696,27.8203,3018.97,0.925426
5704,27.8594,3025.39,0.928663
5712,27.8984,3025.6,0.929203
5720,27.9375,3029.45,0.929868
5728,27.9766,3042.43,0.931402
5736,28.0156,3038.68,0.933992
5744,28.0547,3047.62,0.935855
5752,28.09375,3054.36,0.934532
5760,28.1328,3047.03,0.934989
5768,28.1719,3053.79,0.937786
5776,28.2109,3062.87,0.939685
5784,28.25,3059.46,0.940554
5792,28.2891,3065.21,0.941559
5800,28.3281,3065.3,0.941656
5808,28.3672,3075.95,0.943472
5816,28.40625,3078.63,0.944531
5824,28.4453,3076.13,0.947195
5832,28.4844,3093.92,0.948533
5840,28.5234,3089.99,0.949101
5848,28.5625,3100.39,0.950747
5856,28.6016,3103.91,0.950418
5864,28.6406,3110.79,0.953479
5872,28.6797,3115.17,0.955371
5880,28.71875,3118.58,0.956501
5888,28.7578,3128.38,0.957634
5896,28.7969,3126.17,0.957652
5904,28.8359,3134.12,0.961107
5912,28.875,3128.35,0.962416
5920,28.9141,3144.36,0.96282
5928,28.9531,3137.19,0.963836
5936,28.9922,3149.82,0.964758
5944,29.03125,3152.2,0.965885
5952,29.0703,3148.45,0.966665
5960,29.1094,3146.61,0.969257
5968,29.1484,3167.47,0.970763
5976,29.1875,3168.7,0.97244
5984,29.2266,3167.42,0.973799
5992,29.2656,3180.47,0.974718
6000,29.3047,3168.12,0.974658
6008,29.34375,3187.47,0.976017
6016,29.3828,3187.86,0.977783
6024,29.4219,3194.73,0.978781
6032,29.4609,3197.18,0.980841
6040,29.5,3207.5,0.981081
6048,29.5391,3200.48,0.984435
6056,29.5781,3213.82,0.984167
6064,29.6172,3208.29,0.984467
6072,29.65625,3211.64,0.9875071
6080,29.6953,3222.09,0.987786
6088,29.7344,3227.9,0.990404
6096,29.7734,3229.46,0.991591
6104,29.8125,3229.81,0.992156
6112,29.8516,3239.31,0.993104
6120,29.8906,3236.74,0.994091
6128,29.9297,3242.38,0.997363
6136,29.96875,3244.64,0.996984
6144,30.0078,3251.67,0.997599
6152,30.0469,3256.26,1.000371
6160,30.0859,3266.89,1.0029
6168,30.125,3265.4,1.0032
6176,30.1641,3287.36,1.00414
6184,30.2031,3265.63,1.0046
6192,30.2422,3276.26,1.0076
6200,30.28125,3287.35,1.00909
6208,30.3203,3297.45,1.00894
6216,30.3594,3294.06,1.01036
6224,30.3984,3301.19,1.01056
6232,30.4375,3297.3,1.01398
6240,30.4766,3302.57,1.01404
6248,30.5156,3300.18,1.01463
6256,30.5547,3319.64,1.016593
6264,30.59375,3318.74,1.01987
6272,30.6328,3324.96,1.020956
6280,30.6719,3319.07,1.02177
6288,30.7109,3315.72,1.02289
6296,30.75,3333.01,1.02311
6304,30.7891,3337.83,1.02471
6312,30.8281,3343.54,1.02671
6320,30.8672,3339.83,1.02922
6328,30.90625,3337.38,1.02822
6336,30.9453,3356.36,1.03035
6344,30.9844,3356.87,1.03243
6352,31.0234,3359.91,1.03301
6360,31.0625,3371.04,1.03563
6368,31.1016,3375.24,1.03397
6376,31.1406,3366.05,1.03458
6384,31.1797,3376.96,1.03867
6392,31.21875,3381.27,1.038208
6400,31.2578,3395.96,1.03974
6408,31.2969,3379.55,1.041348
6416,31.3359,3396.48,1.04333
6424,31.375,3403.71,1.04398
6432,31.4141,3397.27,1.04529
6440,31.4531,3409.24,1.0476
6448,31.4922,3414.39,1.04736
6456,31.53125,3416.71,1.05061
6464,31.5703,3426.3,1.05022
6472,31.6094,3422.42,1.05113
6480,31.6484,3432.43,1.05375
6488,31.6875,3422.03,1.05483
6496,31.7266,3442.62,1.054877
6504,31.7656,3447.09,1.0583
6512,31.8047,3438.72,1.05906
6520,31.84375,3451.58,1.06092
6528,31.8828,3453.05,1.06097
6536,31.9219,3457.59,1.06258
6544,31.9609,3457.8,1.064651
6552,32.0,3469.64,1.06587
6560,32.0391,3473.15,1.06688
6568,32.0781,3471.93,1.06786
6576,32.1172,3471.85,1.0683
6584,32.15625,3487.33,1.0717
6592,32.1953,3493.14,1.07237
6600,32.2344,3494.7,1.07239
6608,32.2734,3486.07,1.07444
6616,32.3125,3499.37,1.07606
6624,32.3516,3504,1.07696
6632,32.3906,3503.03,1.07827
6640,32.4297,3510.7,1.0797
6648,32.46875,3507.63,1.08122
6656,32.5078,3520.35,1.0826
6664,32.5469,3520.05,1.08318
6672,32.5859,3521.65,1.0845
6680,32.625,3536.19,1.0862
6688,32.6641,3532.72,1.08752
6696,32.7031,3552.39,1.0893
6704,32.7422,3543.68,1.09071
6712,32.78125,3546.34,1.08983
6720,32.8203,3557.98,1.09258
6728,32.8594,3561.4,1.095947
6736,32.8984,3556.22,1.09427
6744,32.9375,3572.58,1.09524
6752,32.9766,3557.83,1.096158
6760,33.0156,3568.66,1.0984
6768,33.0547,3583.71,1.10089
6776,33.09375,3577.96,1.10216
6784,33.1328,3587.44,1.10491
6792,33.1719,3589.93,1.10373
6800,33.2109,3581.21,1.10489
6808,33.25,3594.44,1.10693
6816,33.2891,3593.94,1.10766
6824,33.3281,3592.02,1.11014
6832,33.3672,3615.48,1.11033
6840,33.40625,3626.61,1.11247
6848,33.4453,3624.69,1.114161
6856,33.4844,3632.62,1.11753
6864,33.5234,3608.23,1.114
6872,33.5625,3633.88,1.11832
6880,33.6016,3628.05,1.1191
6888,33.6406,3641.12,1.11927
6896,33.6797,3645.16,1.1201
6904,33.71875,3634.99,1.12151
6912,33.7578,3654.57,1.1237
6920,33.7969,3666.47,1.12521
6928,33.8359,3667.96,1.12663
6936,33.875,3661.31,1.12833
6944,33.9141,3669.77,1.12934
6952,33.9531,3665.67,1.13117
6960,33.9922,3675.52,1.13212
6968,34.03125,3681.87,1.13281
6976,34.0703,3679.35,1.13397
6984,34.1094,3688.37,1.13392
6992,34.1484,3700.23,1.13685
7000,34.1875,3692.43,1.13767
7008,34.2266,3709.95,1.13947
7016,34.2656,3698.84,1.14083
7024,34.3047,3702.35,1.14308
7032,34.34375,3720.74,1.14262
7040,34.3828,3712.12,1.14506
7048,34.4219,3718.59,1.14617
7056,34.4609,3728.11,1.14756
7064,34.5,3715.69,1.14802
7072,34.5391,3734.45,1.14951
7080,34.5781,3754.41,1.15156
7088,34.6172,3746.56,1.15217
7096,34.65625,3747.05,1.15524
7104,34.6953,3749.72,1.15404
7112,34.7344,3756.1,1.15699
7120,34.7734,3763.06,1.15825
7128,34.8125,3754.42,1.15778
7136,34.8516,3760.46,1.16032
7144,34.8906,3770.52,1.16089
7152,34.9297,3775.05,1.16389
7160,34.96875,3779.68,1.16418
7168,35.0078,3771.37,1.16513
7176,35.0469,3781.17,1.16719
7184,35.0859,3787.1,1.16741
7192,35.125,3790.87,1.169883
7200,35.1641,3794.19,1.17051
7208,35.2031,3809.48,1.1727
7216,35.2422,3807.5,1.17351
7224,35.28125,3809.12,1.17421
7232,35.3203,3817.99,1.17582
7240,35.3594,3823.99,1.17919
7248,35.3984,3825.37,1.17851
7256,35.4375,3830.97,1.17977
7264,35.4766,3827.83,1.18089
7272,35.5156,3838.78,1.18206
7280,35.5547,3840.49,1.18456
7288,35.59375,3837.37,1.18392
7296,35.6328,3844.98,1.18718
7304,35.6719,3849.19,1.18848
7312,35.7109,3846.53,1.18957
7320,35.75,3865.03,1.19034
7328,35.7891,3867.74,1.19118
7336,35.8281,3863.89,1.192621
7344,35.8672,3871.19,1.19569
7352,35.90625,3874.72,1.19681
7360,35.9453,3868.01,1.196723
7368,35.9844,3883.69,1.19793
7376,36.0234,3899.41,1.19889
7384,36.0625,3885.95,1.20085
7392,36.1016,3895.04,1.20222
7400,36.1406,3902.2,1.20415
7408,36.1797,3906.56,1.20464
7416,36.21875,3903.9,1.20598
7424,36.2578,3900.92,1.20866
7432,36.2969,3913.15,1.20823
7440,36.3359,3919.85,1.21091
7448,36.375,3917.43,1.21154
7456,36.4141,3932.14,1.21391
7464,36.4531,3928.9,1.214422
7472,36.4922,3931.27,1.21583
7480,36.53125,3939.35,1.21509
7488,36.5703,3939.17,1.21764
7496,36.6094,3957.23,1.2191
7504,36.6484,3954.51,1.22035
7512,36.6875,3957.94,1.22172
7520,36.7266,3955.01,1.22182
7528,36.7656,3967.45,1.22329
7536,36.8047,3973.73,1.22646
7544,36.84375,3975.29,1.22755
7552,36.8828,3979.03,1.22926
7560,36.9219,3984.97,1.22907
7568,36.9609,3991.22,1.23086
7576,37.0,3985.33,1.23111
7584,37.0391,3987.55,1.23374
7592,37.0781,3995.86,1.23453
7600,37.1172,3992.03,1.23419
7608,37.15625,4009.27,1.23761
7616,37.1953,4012.19,1.238941
7624,37.2344,4018.07,1.23967
7632,37.2734,4025.57,1.24186
7640,37.3125,4025.2,1.24209
7648,37.3516,4021.63,1.24582
7656,37.3906,4024.05,1.2456
7664,37.4297,4040.92,1.24691
7672,37.46875,4040.61,1.24712
7680,37.5078,4035.72,1.2493
7688,37.5469,4052.96,1.25113
7696,37.5859,4038.37,1.25206
7704,37.625,4049.52,1.25317
7712,37.6641,4046.72,1.25477
7720,37.7031,4054.11,1.25558
7728,37.7422,4062.8,1.25678
7736,37.78125,4066.1,1.25806
7744,37.8203,4075.17,1.259408
7752,37.8594,4078.33,1.26013
7760,37.8984,4072.04,1.260699
7768,37.9375,4090.41,1.26314
7776,37.9766,4083.89,1.26534
7784,38.0156,4092.76,1.26617
7792,38.0547,4098.27,1.26781
7800,38.09375,4091.47,1.26745
7808,38.1328,4109.35,1.26954
7816,38.1719,4108.41,1.272651
7824,38.2109,4112.07,1.27102
7832,38.25,4104.77,1.27557
7840,38.2891,4123.19,1.2754
7848,38.3281,4133.46,1.27709
7856,38.3672,4133.38,1.27823
7864,38.40625,4125.56,1.27913
7872,38.4453,4142.52,1.28047
7880,38.4844,4139.6,1.28164
7888,38.5234,4141.76,1.28364
7896,38.5625,4140.21,1.28502
7904,38.6016,4145.08,1.28496
7912,38.6406,4162.11,1.28893
7920,38.6797,4162.32,1.28796
7928,38.71875,4159.4,1.29141
7936,38.7578,4169.48,1.29073
7944,38.7969,4173.86,1.29154
7952,38.8359,4188.54,1.29387
7960,38.875,4175.27,1.2948
7968,38.9141,4182.29,1.2963
7976,38.9531,4191.83,1.29754
7984,38.9922,4185.05,1.29828
7992,39.03125,4207.79,1.30074
8000,39.0703,4196.61,1.30149
8008,39.1094,4206.48,1.30138
8016,39.1484,4204.28,1.30502
8024,39.1875,4204.06,1.30619
8032,39.2266,4214.31,1.30526
8040,39.2656,4228.63,1.30916
8048,39.3047,4206.07,1.30919
8056,39.34375,4226.56,1.31061
8064,39.3828,4233.4,1.31179
8072,39.4219,4238.56,1.3131
8080,39.4609,4241.43,1.31424
8088,39.5,4246,1.31625
8096,39.5391,4253.77,1.31699
8104,39.5781,4253.33,1.32054
8112,39.6172,4250.4,1.32105
8120,39.65625,4260.44,1.32319
8128,39.6953,4262.03,1.32083
8136,39.7344,4268.11,1.3229
8144,39.7734,4269.08,1.32503
8152,39.8125,4272.43,1.32461
8160,39.8516,4282.18,1.32718
8168,39.8906,4283.8,1.32941
8176,39.9297,4283.32,1.32971
8184,39.96875,4290.25,1.3314
8192,40.0078,4294.09,1.33267
8200,40.0469,4294.24,1.33313
8208,40.0859,4305.72,1.33467
8216,40.125,4297.81,1.33677
8224,40.1641,4311.19,1.33706
8232,40.2031,4317.23,1.33966
8240,40.2422,4321.29,1.33958
8248,40.28125,4320.4,1.34173
8256,40.3203,4325.46,1.34201
8264,40.3594,4333.29,1.34311
8272,40.3984,4331.79,1.34532
8280,40.4375,4326.44,1.34681
8288,40.4766,4347.15,1.34787
8296,40.5156,4344.47,1.34942
8304,40.5547,4355.46,1.35022
8312,40.59375,4352.33,1.35331
8320,40.6328,4355.95,1.3536
8328,40.6719,4356.59,1.35534
8336,40.7109,4361.62,1.3552
8344,40.75,4359.28,1.35825
8352,40.7891,4374.64,1.35884
8360,40.8281,4377.55,1.35991
8368,40.8672,4377.27,1.3604
8376,40.90625,4381.45,1.36144
8384,40.9453,4378,1.36296
8392,40.9844,4384.5,1.36524
8400,41.0234,4389.06,1.36602
8408,41.0625,4398.74,1.36782
8416,41.1016,4396.48,1.36832
8424,41.1406,4403.6,1.37196
8432,41.1797,4414.66,1.37114
8440,41.21875,4419.18,1.37373
8448,41.2578,4413.71,1.37337
8456,41.2969,4424.3,1.37543
8464,41.3359,4427.27,1.37607
8472,41.375,4439.58,1.37862
8480,41.4141,4437.77,1.37874
8488,41.4531,4433.87,1.38093
8496,41.4922,4441.46,1.38252
8504,41.53125,4439.23,1.38188
8512,41.5703,4441.05,1.384449
8520,41.6094,4453.04,1.38592
8528,41.6484,4460.99,1.38832
8536,41.6875,4461.95,1.38799
8544,41.7266,4454.77,1.38922
8552,41.7656,4470.26,1.39187
8560,41.8047,4460.46,1.39234
8568,41.84375,4479.59,1.39496
8576,41.8828,4484.16,1.3952
8584,41.9219,4479.95,1.39576
8592,41.9609,4486.32,1.39849
8600,42.0,4485.13,1.399
8608,42.0391,4495.83,1.40169
8616,42.0781,4497.11,1.40155
8624,42.1172,4505.52,1.40019
8632,42.15625,4507.16,1.40384
8640,42.1953,4506.63,1.406
8648,42.2344,4514.72,1.40685
8656,42.2734,4516.14,1.40748
8664,42.3125,4522.14,1.40964
8672,42.3516,4522.05,1.41048
8680,42.3906,4526.07,1.41063
8688,42.4297,4524.93,1.41361
8696,42.46875,4535.22,1.41674
8704,42.5078,4531.94,1.4158
8712,42.5469,4533.57,1.41782
8720,42.5859,4542.18,1.41837
8728,42.625,4547.45,1.41995
8736,42.6641,4554.47,1.422894
8744,42.7031,4553,1.42274
8752,42.7422,4565.06,1.42469
8760,42.78125,4559.55,1.42641
8768,42.8203,4562.68,1.42501
8776,42.8594,4578.21,1.42789
8784,42.8984,4581.76,1.4283
8792,42.9375,4575.93,1.43005
8800,42.9766,4583.23,1.433301
8808,43.0156,4595.78,1.43266
8816,43.0547,4595.91,1.43385
8824,43.09375,4595.11,1.43547
8832,43.1328,4605.18,1.4388
8840,43.1719,4608,1.43888
8848,43.2109,4599.1,1.43911
8856,43.25,4622.58,1.44099
8864,43.2891,4609.14,1.44319
8872,43.3281,4618.92,1.443
8880,43.3672,4622.04,1.44385
8888,43.40625,4622.62,1.44618
8896,43.4453,4622.07,1.44745
8904,43.4844,4630.56,1.44711
8912,43.5234,4633.01,1.45071
8920,43.5625,4639.97,1.4514
8928,43.6016,4637.14,1.453
8936,43.6406,4650.71,1.45391
8944,43.6797,4645.6,1.45526
8952,43.71875,4661.9,1.45599
8960,43.7578,4665.88,1.45743
8968,43.7969,4668.72,1.45795
8976,43.8359,4665.91,1.461457
8984,43.875,4664.23,1.46132
8992,43.9141,4683.77,1.46259
9000,43.9531,4668.45,1.46404
9008,43.9922,4685.53,1.465466
9016,44.03125,4682.78,1.46749
9024,44.0703,4682.48,1.46883
9032,44.1094,4696.9,1.46847
9040,44.1484,4698.89,1.46994
9048,44.1875,4701.55,1.472
9056,44.2266,4702.54,1.47209
9064,44.2656,4707.92,1.47387
9072,44.3047,4704.03,1.47529
9080,44.34375,4713.02,1.47598
9088,44.3828,4712.71,1.47773
9096,44.4219,4720.24,1.48055
9104,44.4609,4724.29,1.48118
9112,44.5,4732.98,1.48163
9120,44.5391,4733.85,1.48236
9128,44.5781,4743.42,1.48484
9136,44.6172,4745.54,1.48495
9144,44.65625,4745.68,1.48647
9152,44.6953,4738.13,1.488626
9160,44.7344,4756.54,1.48911
9168,44.7734,4754.05,1.49228
9176,44.8125,4764.15,1.49405
9184,44.8516,4765.94,1.49413
9192,44.8906,4770.66,1.49629
9200,44.9297,4768.73,1.49672
9208,44.96875,4768.05,1.49844
9216,45.0078,4779.6,1.49883
9224,45.0469,4781.96,1.49982
9232,45.0859,4768.26,1.50082
9240,45.125,4796.57,1.50336
9248,45.1641,4792.64,1.50439
9256,45.2031,4797.17,1.50622
9264,45.2422,4805.29,1.50772
9272,45.28125,4812.79,1.50905
9280,45.3203,4810.24,1.5095
9288,45.3594,4808.27,1.510756
9296,45.3984,4813.97,1.5121
9304,45.4375,4821,1.512748
9312,45.4766,4824.05,1.5136
9320,45.5156,4823.66,1.5163
9328,45.5547,4843.63,1.51881
9336,45.59375,4843.72,1.51848
9344,45.6328,4828.06,1.5193
9352,45.6719,4847.73,1.52074
9360,45.7109,4836.44,1.52396
9368,45.75,4843.78,1.52374
9376,45.7891,4865.71,1.52453
9384,45.8281,4866.88,1.52654
9392,45.8672,4860.67,1.52755
9400,45.90625,4859.62,1.52886
9408,45.9453,4870.22,1.53037
9416,45.9844,4865.4,1.5325
9424,46.0234,4870.46,1.531831
9432,46.0625,4887.7,1.53431
9440,46.1016,4890.87,1.534481
9448,46.1406,4886.36,1.53773
9456,46.1797,4889.65,1.53662
9464,46.21875,4894.59,1.53958
9472,46.2578,4901.8,1.5402
9480,46.2969,4912.07,1.54157
9488,46.3359,4906.54,1.54472
9496,46.375,4903.55,1.54262
9504,46.4141,4904.99,1.545943
9512,46.4531,4914.02,1.54722
9520,46.4922,4926.22,1.54864
9528,46.53125,4927.82,1.54929
9536,46.5703,4924.48,1.55219
9544,46.6094,4942.7,1.55218
9552,46.6484,4943.46,1.55406
9560,46.6875,4937.71,1.55483
9568,46.7266,4950.74,1.55688
9576,46.7656,4938.93,1.55739
9584,46.8047,4944.82,1.5601
9592,46.84375,4956.98,1.55979
9600,46.8828,4953.98,1.56209
9608,46.9219,4963.53,1.56242
9616,46.9609,4966.64,1.56459
9624,47.0,4968.95,1.56562
9632,47.0391,4964.48,1.56672
9640,47.0781,4972.71,1.569
9648,47.1172,4971.82,1.56858
9656,47.15625,4993.26,1.57194
9664,47.1953,4994.36,1.57326
9672,47.2344,4983.65,1.57124
9680,47.2734,5002.15,1.57433
9688,47.3125,4999.99,1.57465
9696,47.3516,4997.78,1.57735
9704,47.3906,4995.83,1.57839
9712,47.4297,5018.47,1.58031
9720,47.46875,5012.75,1.58028
9728,47.5078,5019.55,1.58184
9736,47.5469,5020.8,1.58465
9744,47.5859,5016.86,1.58506
9752,47.625,5024.46,1.58652
9760,47.6641,5023.78,1.58777
9768,47.7031,5037.19,1.58809
9776,47.7422,5041.75,1.59127
9784,47.78125,5044.73,1.59187
9792,47.8203,5045.67,1.59372
9800,47.8594,5049.02,1.5934
9808,47.8984,5055.21,1.5949
9816,47.9375,5053.88,1.59658
9824,47.9766,5058.32,1.59801
9832,48.0156,5065.69,1.59792
9840,48.0547,5066.71,1.60029
9848,48.09375,5071.93,1.60029
9856,48.1328,5077.26,1.60334
9864,48.1719,5087.95,1.60464
9872,48.2109,5086.94,1.60509
9880,48.25,5081.76,1.60707
9888,48.2891,5084.92,1.608
9896,48.3281,5096.63,1.60982
9904,48.3672,5104.6,1.61016
9912,48.40625,5101.8,1.612376
9920,48.4453,5103.76,1.61485
9928,48.4844,5098.84,1.61329
9936,48.5234,5102.11,1.61731
9944,48.5625,5113.52,1.61698
9952,48.6016,5118.87,1.61877
9960,48.6406,5124.25,1.6199
9968,48.6797,5126.37,1.62131
9976,48.71875,5118.75,1.62231
9984,48.7578,5131.86,1.62362
9992,48.7969,5133.48,1.62495
10000,48.8359,5134.5,1.62563
10008,48.875,5142.2,1.62803
10016,48.9141,5146.93,1.62794
10024,48.9531,5152.07,1.62988
10032,48.9922,5146.94,1.63084
10040,49.03125,5166.76,1.63306
10048,49.0703,5160.52,1.633966
10056,49.1094,5153.38,1.63638
10064,49.1484,5184.39,1.63784
10072,49.1875,5166.5,1.63785
10080,49.2266,5168.88,1.63752
10088,49.2656,5181.13,1.64087
10096,49.3047,5182.65,1.64101
10104,49.34375,5184.48,1.64343
10112,49.3828,5191.21,1.6453
10120,49.4219,5188.05,1.64593
10128,49.4609,5198.27,1.64633
10136,49.5,5194.92,1.64755
10144,49.5391,5204.97,1.64879
10152,49.5781,5202.78,1.65023
10160,49.6172,5205.91,1.65152
10168,49.65625,5223.39,1.65219
10176,49.6953,5215.76,1.65493
10184,49.7344,5226.77,1.65542
10192,49.7734,5227.88,1.65676
10200,49.8125,5229.5,1.6586
10208,49.8516,5226.35,1.66015
10216,49.8906,5235.33,1.66121
10224,49.9297,5234.73,1.66371
10232,49.96875,5249.42,1.66365
10240,50.0078,5243.71,1.6662
10248,50.0469,5255.14,1.66731
10256,50.0859,5255.91,1.66786
10264,50.125,5261.19,1.6694
10272,50.1641,5264.61,1.67022
10280,50.2031,5262.78,1.67159
10288,50.2422,5275.45,1.674335
10296,50.28125,5264.19,1.67606
10304,50.3203,5282.49,1.67422
10312,50.3594,5280.23,1.67549
10320,50.3984,5283.26,1.67745
10328,50.4375,5297.82,1.681509
10336,50.4766,5296.8,1.6811
10344,50.5156,5275.44,1.6822
10352,50.5547,5305.42,1.68389
10360,50.59375,5300.72,1.68447
10368,50.6328,5305.27,1.68593
10376,50.6719,5316.96,1.68711
10384,50.7109,5297.85,1.68799
10392,50.75,5327.25,1.6908
10400,50.7891,5315.03,1.69099
10408,50.8281,5326.71,1.69384
10416,50.8672,5321.15,1.69471
10424,50.90625,5334.86,1.69509
10432,50.9453,5338.15,1.69824
10440,50.9844,5340.33,1.69792
10448,51.0234,5333.57,1.70043
10456,51.0625,5340.61,1.70032
10464,51.1016,5333.94,1.7013
10472,51.1406,5346.63,1.70322
10480,51.1797,5356.73,1.70464
10488,51.21875,5363.41,1.70618
10496,51.2578,5366.77,1.70693
10504,51.2969,5366.04,1.70814
10512,51.3359,5376.76,1.71009
10520,51.375,5373.83,1.71139
10528,51.4141,5375.43,1.7119
10536,51.4531,5381.88,1.71391
10544,51.4922,5387.89,1.71398
10552,51.53125,5392.89,1.71585
10560,51.5703,5392.23,1.71779
10568,51.6094,5385.61,1.71777
10576,51.6484,5396.48,1.72086
10584,51.6875,5397.5,1.72166
10592,51.7266,5406.86,1.72304
10598,51.7559,180.178,1.76399